t_mono,ax,ay,az,gx,gy,gz
104052.8746,0.25497289999999995,-0.0392266,9.80665,-0.0005585053606381855,-0.003560471674068432,-0.0056374134839416844
104052.8847,0.25497289999999995,-0.12748644999999997,9.7085835,-0.002356194490192345,-0.002548180707911721,-0.0006457718232379018
104052.8947,0.24516625,-0.02941995,9.845876599999999,-0.004276056667386108,0.0065100781099388496,-0.00614355896702004
104052.9045,0.26477955,-0.0196133,9.81645665,-0.006213372137099813,0.004433136300065597,0.0019373154697137059
104052.9146,0.26477955,-0.0196133,9.71839015,0.004485496177625427,0.0019373154697137059,-0.00010471975511965978
104052.9264,0.26477955,0.0,9.77723005,0.0038222710618675817,-0.0014486232791552935,0.005288347633542819
104052.9355,0.24516625,-0.04903325,9.826263299999999,0.0009250245035569946,-0.0004886921905584122,-0.009232791743050004
104052.9465,0.2745862,0.00980665,9.79684335,0.004276056667386108,0.011658799403322121,0.008831366015091307
104052.9575,0.20593965,-0.10787314999999999,9.81645665,-0.0016231562043547264,0.0004537856055185257,-0.001064650843716541
104052.9713,0.2745862,0.0,9.80665,0.00307177948351002,0.0028448866807507574,0.0013962634015954637
104052.9807,0.196133,-0.0392266,9.7870367,0.0027576202181510408,0.0033859387488689996,-0.002007128639793479
104052.9909,0.25497289999999995,-0.00980665,9.7870367,0.0008203047484373349,-0.0016231562043547264,-0.0053058009260627615
104053.0009,0.28439285,-0.00980665,9.79684335,-0.0024609142453120045,0.0038222710618675817,0.004468042885105484
104053.0104,0.2745862,-0.00980665,9.79684335,0.0024434609527920616,-0.0015882496193148398,0.0015707963267948964
104053.0228,0.30400615,-0.0588399,9.81645665,-0.0022689280275926286,0.005881759579220891,-0.00466002910282486
104053.0327,0.2745862,0.0196133,9.77723005,-0.001186823891356144,0.0008726646259971648,-0.007330382858376184
104053.0425,0.24516625,-0.02941995,9.7870367,-0.004276056667386108,0.0054105206811824215,-0.00466002910282486
104053.0549,0.25497289999999995,0.04903325,9.894909849999998,-0.0113271868454432,0.005462880558742251,0.0019198621771937625
104053.0638,0.24516625,0.02941995,9.875296549999998,0.0015882496193148398,-0.0019722220547535923,-0.0017278759594743863
104053.0738,0.2745862,-0.04903325,9.826263299999999,-0.004153883619746504,-0.0007853981633974482,-0.0019198621771937625
104053.0837,0.3334261,-0.08825984999999999,9.836069949999999,0.003298672286269283,-0.00047123889803846896,0.0032637657012293962
104053.0941,0.28439285,-0.0980665,9.826263299999999,0.006911503837897545,-0.002478367537831948,-0.011152653920243767
104053.1035,0.24516625,-0.0392266,9.81645665,-0.005777039824101231,-0.004223696789826277,0.0035779249665883754
104053.1136,0.30400615,-0.0392266,9.845876599999999,0.004886921905584123,0.003996803987067015,-0.00022689280275926284
104053.1244,0.26477955,-0.04903325,9.81645665,-0.0037699111843077517,0.0019198621771937625,-0.0055152404363020815
104053.1353,0.25497289999999995,-0.12748644999999997,9.79684335,0.009930923443847734,-0.00153588974175501,0.0030543261909900766
104053.1455,0.35303939999999995,-0.06864655,9.757616749999999,-0.0037699111843077517,-0.00010471975511965978,-0.0015009831567151233
104053.1771,0.3334261,-0.1176798,9.80665,0.0027925268031909274,0.00019198621771937625,0.003892084231947355
104053.2859,0.32361945,-0.0784532,9.77723005,-0.0028099800957108708,-0.006021385919380436,0.002181661564992912
104053.3047,0.20593965,-0.0196133,9.836069949999999,-0.005567600313861911,-0.0003141592653589793,-0.004153883619746504
104053.3288,0.2745862,0.04903325,9.81645665,-0.0044156830075456534,0.00890117918517108,0.0028797932657906437
104053.3802,0.30400615,-0.0784532,9.81645665,-0.006161012259539983,0.0031764992386296795,-0.007086036763096978
104053.4720,0.196133,-0.0196133,9.826263299999999,-0.0004363323129985824,0.0058468529941810045,0.005759586531581287
104053.4818,0.2353596,0.00980665,9.855683249999998,-0.0079412480965742,-0.002548180707911721,-0.006230825429619756
104053.4918,0.29419949999999995,-0.00980665,9.77723005,0.008203047484373348,0.002775073510670984,-0.0014486232791552935
104053.5021,0.392266,-0.00980665,9.7674234,-0.0037524578917878084,-0.00012217304763960306,-0.0023038346126325153
104053.5130,0.2353596,-0.02941995,9.77723005,-0.0019198621771937625,-0.004572762640225144,-0.0017976891295541594
104053.5249,0.26477955,-0.0784532,9.80665,-0.0009773843811168245,-0.0014835298641951802,-0.0009250245035569946
104053.5356,0.2353596,-0.0,9.81645665,-0.0005235987755982988,-0.004258603374866164,-0.000296705972839036
104053.5462,0.26477955,-0.0196133,9.80665,0.0003141592653589793,0.0014311699866353504,-0.0070685834705770355
104053.5581,0.26477955,-0.0980665,9.81645665,-0.00020943951023931956,0.0013439035240356337,0.001954768762233649
104053.5676,0.25497289999999995,-0.0588399,9.826263299999999,0.007243116395776467,-0.005480333851262195,-0.00710349005561692
104053.5779,0.3138128,-0.0784532,9.845876599999999,-0.0038571776469074684,-0.0013962634015954637,-0.0021991148575128553
104053.5888,0.30400615,-0.0196133,9.81645665,-0.0064053583548191895,0.0004363323129985824,-0.0048520153205442364
104053.5986,0.32361945,-0.0392266,9.826263299999999,-0.007138396640656807,0.004433136300065597,0.002495820830351891
104053.6083,0.2353596,-0.0196133,9.77723005,0.00012217304763960306,0.0016406094968746698,-0.003141592653589793
104053.6190,0.32361945,-0.08825984999999999,9.81645665,-0.003193952531149623,-0.005550147021341968,0.008936085770210968
104053.6311,0.3138128,-0.02941995,9.7674234,-0.001361356816555577,0.0038048177693476384,0.0004886921905584122
104053.6392,0.3334261,-0.0784532,9.7281968,0.008883725892651137,0.009442231253289324,0.0002617993877991494
104053.6487,0.26477955,-0.04903325,9.80665,-0.0019198621771937625,0.003543018381548489,0.0021642082724729686
104053.6594,0.22555294999999997,0.0196133,9.79684335,0.0038222710618675817,0.01153662635568252,-0.00027925268031909274
104053.6702,0.29419949999999995,0.0588399,9.7281968,-0.0074176493209759005,-0.002722713633111154,-0.0018849555921538759
104053.6814,0.25497289999999995,0.0196133,9.894909849999998,0.0009250245035569946,0.0012740903539558606,-0.003892084231947355
104053.6940,0.22555294999999997,-0.02941995,9.855683249999998,0.0005061454830783556,0.0036302848441482054,0.005881759579220891
104053.7024,0.2353596,-0.0196133,9.8654899,0.0072082098107365804,-0.001117010721276371,-0.001780235837034216
104053.7126,0.2353596,-0.00980665,9.757616749999999,0.00486946861306418,0.0021118483949131386,-0.001117010721276371
104053.7233,0.18632634999999997,0.0196133,9.7674234,0.006928957130417489,0.002949606435870417,0.008325220532012952
104053.7345,0.29419949999999995,-0.14709974999999997,9.80665,-0.00301941960595019,0.0006457718232379018,0.0027052603405912107
104053.7441,0.29419949999999995,-0.1176798,9.7674234,0.013229595730117017,0.001832595714594046,0.007347836150896127
104053.7554,0.28439285,-0.0392266,9.836069949999999,-0.006771877497737999,0.003543018381548489,-0.0026878070480712674
104053.7666,0.30400615,-0.0,9.80665,0.003944444109507185,0.0006981317007977319,-0.0041887902047863905
104053.7792,0.24516625,-0.04903325,9.80665,-0.002478367537831948,0.006440264939859076,0.005567600313861911
104053.7890,0.3138128,-0.0392266,9.845876599999999,0.00476474885794452,0.0029321531433504737,-0.0019896753472735357
104053.7988,0.28439285,-0.0196133,9.836069949999999,-0.005044001538263612,0.003560471674068432,-0.002722713633111154
104053.8089,0.2353596,-0.04903325,9.7870367,0.0010297442586766543,-0.00952949771588904,-0.005829399701661061
104053.8194,0.25497289999999995,-0.0392266,9.77723005,-0.0014486232791552935,0.0027576202181510408,-0.00312413936106985
104053.8302,0.24516625,-0.0588399,9.79684335,0.009145525280450288,-0.001710422666954443,0.0012042771838760874
104053.8410,0.29419949999999995,-0.0588399,9.757616749999999,0.008168140899333463,0.0016057029118347831,0.00895353906273091
104053.8506,0.26477955,-0.0588399,9.79684335,0.004747295565424576,-0.002775073510670984,-0.002181661564992912
104053.8610,0.2353596,-0.0196133,9.855683249999998,0.009232791743050004,-0.001710422666954443,-0.005777039824101231
104053.8712,0.196133,-0.02941995,9.836069949999999,-0.003351032163829113,0.002234021442552742,0.0035779249665883754
104053.8824,0.2745862,-0.0392266,9.80665,-0.0010122909661567112,-0.0018500490071139892,0.002076941809873252
104053.8936,0.28439285,0.00980665,9.747810099999999,0.005899212871740834,0.0030543261909900766,-0.005986479334340551
104053.9046,0.32361945,-0.0588399,9.77723005,0.005270894341022875,0.004537856055185257,-0.0033161255787892262
104053.9155,0.25497289999999995,-0.08825984999999999,9.845876599999999,0.0033335788713091696,0.0031764992386296795,-0.007557275661135447
104053.9294,0.29419949999999995,-0.00980665,9.836069949999999,0.014014993893514467,-0.003735004599267865,-0.005148721293383272
104053.9393,0.22555294999999997,-0.0,9.826263299999999,0.0048520153205442364,-0.0027925268031909274,0.003996803987067015
104053.9502,0.22555294999999997,-0.0980665,9.81645665,-0.007243116395776467,0.0028099800957108708,-0.0027576202181510408
104053.9618,0.28439285,-0.0784532,9.757616749999999,0.004084070449666731,-0.005654866776461628,-0.0033161255787892262
104053.9767,0.32361945,-0.00980665,9.7870367,-0.008325220532012952,0.0034557519189487725,-0.008709192967451705
104053.9824,0.29419949999999995,-0.02941995,9.836069949999999,0.003351032163829113,-0.0032114058236695662,0.008115781021773632
104053.9925,0.24516625,-0.0588399,9.77723005,0.0047298422729046335,-0.011397000015522973,0.002897246558310587
104054.0023,0.2745862,-0.06864655,9.80665,-0.002234021442552742,-0.009337511498169663,-0.002076941809873252
104054.0133,0.196133,-0.0392266,9.7674234,-0.003735004599267865,-0.00736528944341607,0.0002617993877991494
104054.0244,0.25497289999999995,-0.0392266,9.7870367,0.0038746309394274117,0.0043982297150257105,0.0005061454830783556
104054.0352,0.29419949999999995,-0.0588399,9.79684335,0.004590215932745087,-0.0005585053606381855,0.0008028514559173916
104054.0462,0.21574629999999997,-0.0392266,9.845876599999999,0.003525565089028546,-0.010629055144645466,0.0012915436464758037
104054.0573,0.2353596,-0.00980665,9.875296549999998,0.0009773843811168245,0.003735004599267865,-0.0007853981633974482
104054.0686,0.20593965,-0.0980665,9.81645665,0.003525565089028546,0.006161012259539983,-0.007033676885537149
104054.0794,0.25497289999999995,0.02941995,9.79684335,-0.0006457718232379018,0.0028099800957108708,0.002617993877991494
104054.0903,0.28439285,-0.0588399,9.81645665,-0.001361356816555577,0.006562437987498679,0.0035953782591083188
104054.1014,0.29419949999999995,-0.0196133,9.80665,1.7453292519943296e-05,-0.00799360797413403,-0.001117010721276371
104054.1123,0.25497289999999995,0.0588399,9.757616749999999,-0.0004014257279586958,-1.7453292519943296e-05,0.007819075048934596
104054.1236,0.25497289999999995,-0.0196133,9.80665,0.004206243497306334,0.0052010811709431014,0.004642575810304917
104054.1330,0.2745862,0.02941995,9.845876599999999,-0.000296705972839036,-0.0037175513067479217,-0.0006806784082777885
104054.1429,0.25497289999999995,-0.0392266,9.757616749999999,-0.003682644721708035,0.0028797932657906437,-0.006283185307179586
104054.1550,0.2745862,0.0588399,9.81645665,-0.005288347633542819,0.003543018381548489,0.004433136300065597
104054.1654,0.3138128,-0.02941995,9.80665,0.0028448866807507574,0.008656833089891874,0.006981317007977318
104054.1747,0.2353596,-0.08825984999999999,9.80665,-0.001780235837034216,0.0033859387488689996,-0.00809832772925369
104054.1878,0.20593965,0.0,9.81645665,-0.002181661564992912,0.0004537856055185257,0.007487462491055674
104054.1987,0.2745862,-0.0196133,9.7870367,-0.010524335389525807,-0.0008377580409572782,-0.0022689280275926286
104054.2089,0.24516625,-0.0196133,9.79684335,0.0074176493209759005,0.00027925268031909274,0.00736528944341607
104054.2184,0.25497289999999995,-0.02941995,9.79684335,-0.002722713633111154,0.005445427266222308,-0.0010821041362364843
104054.2293,0.32361945,-0.0588399,9.7674234,0.0019896753472735357,-0.0019722220547535923,0.00017453292519943296
104054.2403,0.26477955,-0.06864655,9.855683249999998,0.004014257279586958,-0.0012217304763960308,0.0046251225177849735
104054.2502,0.2745862,-0.0588399,9.79684335,0.0004886921905584122,0.0038222710618675817,0.0035779249665883754
104054.2611,0.2745862,-0.0588399,9.826263299999999,0.003909537524467298,-0.004310963252425994,0.008761552845011534
104054.2752,0.29419949999999995,-0.0196133,9.8654899,0.008813912722571364,0.0032288591161895096,-0.01117010721276371
104054.2852,0.32361945,0.0,9.81645665,0.0018675022996339325,-0.005323254218582705,0.0008028514559173916
104054.2957,0.26477955,-0.0196133,9.747810099999999,0.0010297442586766543,-0.0025132741228718345,-0.007906341511534314
104054.3074,0.26477955,-0.08825984999999999,9.826263299999999,0.006998770300497262,-0.00034906585039886593,-0.00013962634015954637
104054.3178,0.28439285,-0.0980665,9.845876599999999,0.0018849555921538759,0.0032637657012293962,0.003159045946109736
104054.3291,0.29419949999999995,-0.00980665,9.7674234,0.00015707963267948965,0.0020245819323134223,-0.004153883619746504
104054.3393,0.2745862,-0.0392266,9.7870367,-0.0030368728984701333,0.0026354471705114374,-0.003839724354387525
104054.3505,0.29419949999999995,-0.08825984999999999,9.875296549999998,0.0030368728984701333,-0.004345869837465881,-0.0002617993877991494
104054.3606,0.22555294999999997,-0.0588399,9.845876599999999,-0.004642575810304917,0.0022514747350726853,-0.003420845333908886
104054.3733,0.25497289999999995,-0.0196133,9.747810099999999,0.00476474885794452,0.006492624817418906,0.003159045946109736
104054.3821,0.3138128,-0.02941995,9.7674234,-0.002949606435870417,0.006754424205218055,0.00486946861306418
104054.3922,0.2745862,-0.0588399,9.826263299999999,0.006230825429619756,-0.0029845130209103037,0.003246312408709453
104054.4020,0.20593965,0.0392266,9.7870367,0.0022689280275926286,-0.006003932626860493,0.0004886921905584122
104054.4119,0.30400615,-0.0980665,9.77723005,0.006021385919380436,0.000593411945678072,0.002617993877991494
104054.4220,0.26477955,-0.0196133,9.7674234,0.00012217304763960306,-0.003909537524467298,-0.005986479334340551
104054.4318,0.18632634999999997,0.02941995,9.7674234,0.003438298626428829,0.0020943951023931952,-0.010419615634406148
104054.4419,0.26477955,0.0784532,9.826263299999999,-0.005009094953223725,0.0032637657012293962,-0.002234021442552742
104054.4527,0.38245935,0.00980665,9.826263299999999,0.003892084231947355,-0.005654866776461628,0.0037699111843077517
104054.4644,0.28439285,-0.00980665,9.8654899,0.0013439035240356337,-0.001780235837034216,0.008552113334772215
104054.4738,0.26477955,-0.1372931,9.836069949999999,-0.004014257279586958,0.0005585053606381855,-0.0031066860685499066
104054.4834,0.29419949999999995,-0.08825984999999999,9.7870367,0.009669124056048587,0.004537856055185257,0.0019896753472735357
104054.4936,0.28439285,-0.0196133,9.826263299999999,0.0010122909661567112,-0.00476474885794452,0.0048345620280242935
104054.5035,0.24516625,-0.04903325,9.80665,0.0002443460952792061,0.005585053606381855,-0.003735004599267865
104054.5134,0.24516625,-0.02941995,9.836069949999999,-0.001762782544514273,-0.0009599310885968813,0.002722713633111154
104054.5245,0.30400615,-0.0392266,9.875296549999998,-0.006457718232379019,0.0035081117965086025,0.0004188790204786391
104054.5341,0.29419949999999995,-0.0784532,9.7870367,0.004014257279586958,0.008883725892651137,-0.008063421144213804
104054.5456,0.29419949999999995,-0.0,9.8654899,0.0005061454830783556,-0.000296705972839036,0.0068591439603377154
104054.5552,0.2353596,-0.02941995,9.81645665,0.0035953782591083188,-0.0044156830075456534,0.0044156830075456534
104054.5667,0.28439285,-0.04903325,9.81645665,-0.006265732014659643,-0.0009424777960769379,0.0033684854563490563
104054.5774,0.32361945,-0.02941995,9.9047165,-0.0028448866807507574,-0.0032114058236695662,0.010349802464326374
104054.5875,0.29419949999999995,-0.02941995,9.747810099999999,0.004328416544945937,0.001832595714594046,0.004101523742186674
104054.5976,0.21574629999999997,-0.0588399,9.845876599999999,0.006667157742618339,-0.0016406094968746698,0.0019722220547535923
104054.6079,0.25497289999999995,-0.04903325,9.7674234,0.0012217304763960308,-5.235987755982989e-05,-0.004049163864626845
104054.6183,0.2745862,-0.0588399,9.7870367,-0.00958185759344887,0.003839724354387525,-0.003926990816987242
104054.6289,0.2353596,-0.04903325,9.7870367,-0.0026354471705114374,0.0024609142453120045,-0.0073129295658562405
104054.6387,0.24516625,-0.0392266,9.7674234,-0.008604473212332044,-0.0007330382858376184,0.00022689280275926284
104054.6504,0.22555294999999997,-0.0,9.80665,-0.003246312408709453,0.007138396640656807,0.011466813185602746
104054.6602,0.2745862,0.00980665,9.79684335,0.00153588974175501,-0.005864306286700947,-0.0009773843811168245
104054.6724,0.22555294999999997,-0.02941995,9.81645665,0.0029321531433504737,0.0020594885173533086,0.0072082098107365804
104054.6826,0.25497289999999995,-0.00980665,9.77723005,-0.00710349005561692,-0.004101523742186674,0.0006283185307179586
104054.6921,0.26477955,0.0392266,9.7674234,0.0062482787221397,0.00773180858633488,0.00022689280275926284
104054.7022,0.2353596,-0.0784532,9.747810099999999,-0.0002617993877991494,0.0027401669256310974,0.0027401669256310974
104054.7119,0.2745862,-0.02941995,9.80665,-0.0030543261909900766,-0.00020943951023931956,-0.0019373154697137059
104054.7240,0.2353596,-0.00980665,9.757616749999999,-0.004223696789826277,3.490658503988659e-05,-0.0033161255787892262
104054.7327,0.30400615,-0.02941995,9.757616749999999,-0.003996803987067015,0.0028448866807507574,0.004433136300065597
104054.7426,0.22555294999999997,-0.0392266,9.855683249999998,0.002827433388230814,0.0012740903539558606,-0.001308996938995747
104054.7524,0.25497289999999995,-0.0588399,9.757616749999999,-0.011397000015522973,-0.0020245819323134223,-0.001186823891356144
104054.7644,0.25497289999999995,0.0392266,9.9047165,0.0005759586531581288,0.013351768777756621,0.007853981633974483
104054.7718,0.29419949999999995,-0.06864655,9.8654899,0.0009773843811168245,0.0017976891295541594,-0.004380776422505767
104054.7832,0.28439285,0.0196133,9.757616749999999,-0.0014835298641951802,-0.001239183768915974,-0.0037524578917878084
104054.7941,0.28439285,-0.00980665,9.757616749999999,0.0013962634015954637,-0.0012915436464758037,-0.00047123889803846896
104054.8046,0.2353596,0.00980665,9.7674234,-0.006073745796940267,0.004991641660703782,-0.0005410520681182421
104054.8146,0.24516625,-0.0784532,9.7870367,0.003543018381548489,-0.002286381320112572,-0.006614797865058509
104054.8246,0.21574629999999997,-0.0392266,9.826263299999999,0.0003316125578789226,-0.003944444109507185,-0.0002617993877991494
104054.8374,0.196133,-0.06864655,9.81645665,-0.008115781021773632,-0.002949606435870417,0.001239183768915974
104054.8474,0.2353596,-0.00980665,9.81645665,0.0028099800957108708,-0.0029845130209103037,0.0017453292519943296
104054.8586,0.28439285,-0.04903325,9.836069949999999,-0.005532693728822024,-0.001117010721276371,0.006614797865058509
104054.8687,0.2745862,-0.06864655,9.80665,0.0005585053606381855,-0.01043706892692609,0.005934119456780721
104054.8793,0.25497289999999995,-0.04903325,9.81645665,-0.0028448866807507574,0.004084070449666731,-0.0026005405854715507
104054.8892,0.2353596,-0.06864655,9.826263299999999,-0.00773180858633488,0.005916666164260778,0.003141592653589793
104054.8993,0.24516625,-0.10787314999999999,9.7870367,-0.011728612573401895,0.0025656340004316645,-0.000890117918517108
104054.9109,0.2353596,-0.0784532,9.757616749999999,-0.002408554367752175,0.001186823891356144,-0.0043982297150257105
104054.9202,0.2353596,-0.00980665,9.7674234,-0.006457718232379019,-0.0028448866807507574,0.0042935099599060505
104054.9310,0.22555294999999997,-0.02941995,9.81645665,-1.7453292519943296e-05,0.00809832772925369,-0.0017278759594743863
104054.9410,0.26477955,-0.08825984999999999,9.7674234,0.0003839724354387525,-0.001186823891356144,3.490658503988659e-05
104054.9508,0.2353596,-0.00980665,9.81645665,-0.004310963252425994,0.011815879036001611,0.0011344640137963143
104054.9608,0.2353596,-0.0392266,9.845876599999999,0.002181661564992912,-0.00312413936106985,-0.0018849555921538759
104054.9706,0.2353596,-0.0588399,9.81645665,0.0029321531433504737,-0.0018849555921538759,-0.0007155849933176752
104054.9805,0.3334261,-0.04903325,9.7674234,0.0049741883681838385,0.002827433388230814,0.00047123889803846896
104054.9904,0.25497289999999995,-0.0392266,9.81645665,-0.0003141592653589793,0.0033859387488689996,0.00481710873550435
104055.0006,0.25497289999999995,-0.06864655,9.81645665,-0.004084070449666731,-0.004258603374866164,0.0022514747350726853
104055.0105,0.21574629999999997,-0.0392266,9.80665,0.004241150082346221,0.004363323129985824,0.0015184364492350666
104055.0216,0.29419949999999995,-0.0392266,9.80665,-0.004956735075663896,-0.002286381320112572,0.0029845130209103037
104055.0333,0.196133,-0.00980665,9.81645665,0.0076445421237351634,-0.0015533430342749533,-0.00307177948351002
104055.0436,0.22555294999999997,-0.02941995,9.836069949999999,-0.00153588974175501,-6.981317007977319e-05,-0.0006108652381980154
104055.0544,0.2353596,-0.1176798,9.7674234,0.010122909661567111,-0.004223696789826277,0.00020943951023931956
104055.0646,0.26477955,-0.0392266,9.836069949999999,-0.001117010721276371,-0.0005235987755982988,-0.010681415022205296
104055.0752,0.2745862,-0.00980665,9.77723005,-0.000767944870877505,-0.0016231562043547264,0.0030892327760299633
104055.0852,0.22555294999999997,-0.04903325,9.836069949999999,-0.0027925268031909274,0.00301941960595019,-0.0008028514559173916
104055.0965,0.25497289999999995,0.0196133,9.7674234,0.004468042885105484,-0.001762782544514273,-0.0027401669256310974
104055.1106,0.29419949999999995,-0.06864655,9.79684335,-0.0071907565182166375,0.002373647782712288,0.00736528944341607
104055.1182,0.3138128,-0.04903325,9.757616749999999,0.0038222710618675817,0.0067369709126981125,-0.0032288591161895096
104055.1282,0.34323275000000003,-0.0588399,9.77723005,0.009250245035569947,-0.0037524578917878084,-0.002408554367752175
104055.1413,0.3138128,-0.00980665,9.845876599999999,0.0035779249665883754,0.0013788101090755204,-0.005462880558742251
104055.1530,0.24516625,-0.02941995,9.77723005,-0.002373647782712288,0.005864306286700947,-0.010314895879286487
104055.1631,0.3138128,-0.08825984999999999,9.845876599999999,-0.0009948376736367678,0.008377580409572781,-0.007435102613495843
104055.1767,0.25497289999999995,-0.08825984999999999,9.81645665,0.002129301687433082,-0.0008028514559173916,0.00153588974175501
104055.1865,0.2745862,-0.04903325,9.80665,-0.011885692206081384,-0.004310963252425994,0.005462880558742251
104055.1978,0.38245935,-0.0784532,9.80665,-0.008133234314293577,0.0007155849933176752,-0.002373647782712288
104055.2091,0.18632634999999997,-0.0784532,9.7870367,-0.001832595714594046,0.005759586531581287,0.004310963252425994
104055.2183,0.26477955,-0.08825984999999999,9.855683249999998,0.007016223593017205,-0.00603883921190038,-0.0007155849933176752
104055.2294,0.2745862,-0.02941995,9.80665,-0.0041887902047863905,-0.011239920382843483,-0.0021991148575128553
104055.2412,0.3138128,-0.0784532,9.7674234,0.008726646259971648,-0.0024260076602721182,-0.005585053606381855
104055.2500,0.22555294999999997,-0.06864655,9.7870367,-0.0048520153205442364,0.0020943951023931952,-0.008831366015091307
104055.2600,0.26477955,-0.0,9.77723005,-0.005585053606381855,-0.005934119456780721,-0.0012217304763960308
104055.2698,0.36284605,-0.0,9.845876599999999,0.0004014257279586958,-0.003351032163829113,-0.002181661564992912
104055.2807,0.22555294999999997,-0.0980665,9.757616749999999,-0.0030019663134302466,0.004468042885105484,0.005602506898901798
104055.2908,0.3138128,-0.08825984999999999,9.757616749999999,-3.490658503988659e-05,0.00466002910282486,-0.007557275661135447
104055.3006,0.29419949999999995,-0.0392266,9.826263299999999,-1.7453292519943296e-05,-0.0033161255787892262,0.009599310885968814
104055.3113,0.29419949999999995,-0.06864655,9.80665,0.002007128639793479,-0.004468042885105484,0.001117010721276371
104055.3222,0.24516625,-0.06864655,9.845876599999999,0.0028797932657906437,-0.0004363323129985824,0.0014311699866353504
104055.3335,0.22555294999999997,-0.0392266,9.757616749999999,-0.001308996938995747,-0.0037699111843077517,-5.235987755982989e-05
104055.3433,0.2745862,-0.0,9.79684335,0.0056199601914217415,0.000296705972839036,-0.005358160803622592
104055.3549,0.24516625,-0.0588399,9.7870367,-0.0029845130209103037,-0.001064650843716541,0.005672320068981571
104055.3643,0.30400615,0.00980665,9.7870367,-0.005323254218582705,-0.0005061454830783556,0.0027052603405912107
104055.3753,0.2745862,-0.08825984999999999,9.79684335,-0.0009773843811168245,-0.003351032163829113,-0.0069638637154573755
104055.3862,0.28439285,-0.04903325,9.836069949999999,-0.005759586531581287,0.006178465552059927,-0.004276056667386108
104055.4078,0.32361945,-0.02941995,9.7674234,0.0018151424220741027,-0.0011693705988362008,0.0022689280275926286
104055.4155,0.26477955,-0.0588399,9.77723005,-0.0023212879051524586,0.0049741883681838385,-0.0003665191429188092
104055.4256,0.25497289999999995,-0.0980665,9.79684335,-0.003944444109507185,0.005375614096142535,-0.010768681484805013
104055.4362,0.25497289999999995,-0.0588399,9.80665,-0.0018151424220741027,-0.001308996938995747,-0.008866272600131194
104055.4471,0.29419949999999995,-0.00980665,9.7870367,0.0037699111843077517,-0.0013439035240356337,-0.0021991148575128553
104055.4585,0.32361945,-0.00980665,9.855683249999998,0.004886921905584123,-0.004468042885105484,0.005218534463463045
104055.4693,0.26477955,-0.0980665,9.845876599999999,-0.0006632251157578452,0.001308996938995747,-0.001117010721276371
104055.4814,0.3138128,-0.0392266,9.855683249999998,-0.002356194490192345,-0.002530727415391778,-0.003892084231947355
104055.4918,0.25497289999999995,-0.0588399,9.826263299999999,0.003944444109507185,-0.00010471975511965978,0.0022689280275926286
104055.5022,0.2353596,0.04903325,9.7870367,-0.004276056667386108,-0.0032812189937493396,0.0022689280275926286
104055.5125,0.30400615,-0.0392266,9.747810099999999,-0.005340707511102648,0.008045967851693859,0.0004886921905584122
104055.5234,0.24516625,-0.08825984999999999,9.826263299999999,-0.0048345620280242935,0.0013264502315156904,-0.003979350694547071
104055.5342,0.28439285,-0.00980665,9.80665,0.001954768762233649,0.0016057029118347831,-0.001762782544514273
104055.5467,0.20593965,-0.0588399,9.81645665,0.0006632251157578452,-0.00010471975511965978,0.00047123889803846896
104055.5576,0.25497289999999995,-0.0980665,9.77723005,0.005462880558742251,-0.004782202150464463,0.005550147021341968
104055.5684,0.29419949999999995,-0.04903325,9.79684335,-0.0010471975511965976,-0.006719517620178169,0.004921828490624009
104055.5811,0.30400615,-0.0392266,9.845876599999999,-0.0033859387488689996,-0.0018849555921538759,-0.0022689280275926286
104055.5910,0.30400615,0.00980665,9.826263299999999,0.0010995574287564276,-0.0012566370614359172,-0.0043982297150257105
104055.6027,0.2353596,-0.00980665,9.757616749999999,-0.0009075712110370514,-0.008342673824532895,0.0012042771838760874
104055.6126,0.20593965,0.0196133,9.826263299999999,-0.0016580627893946131,-0.003438298626428829,0.005986479334340551
104055.6228,0.25497289999999995,-0.04903325,9.81645665,0.002076941809873252,0.005009094953223725,-0.0021642082724729686
104055.6356,0.25497289999999995,-0.0588399,9.7674234,0.0029321531433504737,0.0108035880698449,-0.003525565089028546
104055.6455,0.25497289999999995,0.0,9.845876599999999,-0.0009250245035569946,-0.0007155849933176752,0.002897246558310587
104055.6554,0.32361945,-0.0588399,9.80665,0.0018500490071139892,0.001064650843716541,-0.003560471674068432
104055.6653,0.32361945,-0.04903325,9.7870367,0.0012042771838760874,-0.0015009831567151233,0.003420845333908886
104055.6752,0.3138128,-0.0392266,9.81645665,-0.011187560505283653,0.005113814708343385,0.00017453292519943296
104055.6846,0.32361945,-0.04903325,9.7870367,3.490658503988659e-05,0.003141592653589793,0.006719517620178169
104055.6971,0.2353596,-0.08825984999999999,9.77723005,-0.01096066770252439,0.0008552113334772215,0.003525565089028546
104055.7084,0.32361945,-0.00980665,9.826263299999999,-0.004223696789826277,0.0015707963267948964,-0.0032637657012293962
104055.7184,0.24516625,-0.00980665,9.80665,-0.000593411945678072,-0.004433136300065597,0.008272860654453122
104055.7287,0.26477955,-0.0784532,9.81645665,0.010943214410004447,-0.0040666171571467884,-0.00020943951023931956
104055.7381,0.2745862,-0.06864655,9.77723005,-0.0030368728984701333,-0.00010471975511965978,-0.0035779249665883754
104055.7492,0.32361945,-0.08825984999999999,9.7281968,0.0012042771838760874,-0.0024260076602721182,-0.006876597252857658
104055.7597,0.21574629999999997,-0.0588399,9.747810099999999,0.005166174585903215,0.003490658503988659,0.0010995574287564276
104055.7698,0.36284605,-0.02941995,9.855683249999998,-0.0035953782591083188,-0.002356194490192345,0.006806784082777886
104055.7800,0.28439285,-0.10787314999999999,9.79684335,0.0006806784082777885,-0.007260569688296411,-0.0013788101090755204
104055.7899,0.22555294999999997,-0.06864655,9.875296549999998,-0.0037175513067479217,0.006387905062299246,-0.0072954762733362976
104055.7996,0.30400615,0.0392266,9.836069949999999,-0.0037000980142279784,0.004485496177625427,-0.00815068760681352
104055.8095,0.24516625,-0.02941995,9.855683249999998,-0.005096361415823442,0.0009599310885968813,-0.00476474885794452
104055.8199,0.22555294999999997,-0.16671305,9.80665,-0.009791297103688189,-0.0026878070480712674,0.0019024088846738192
104055.8326,0.32361945,-0.06864655,9.79684335,0.005602506898901798,0.004433136300065597,-0.0013788101090755204
104055.8426,0.22555294999999997,-0.08825984999999999,9.845876599999999,-0.0057246799465414016,-0.012060225131280817,0.0018849555921538759
104055.8528,0.26477955,-0.02941995,9.826263299999999,0.0006806784082777885,-0.0010821041362364843,0.004345869837465881
104055.8652,0.2745862,-0.02941995,9.826263299999999,-0.002548180707911721,0.00301941960595019,-0.0004188790204786391
104055.8752,0.21574629999999997,-0.0392266,9.81645665,0.002373647782712288,0.0015707963267948964,-0.0062482787221397
104055.8861,0.22555294999999997,-0.0392266,9.7674234,0.006544984694978736,0.0045204027626653135,-0.0007330382858376184
104055.8969,0.25497289999999995,0.04903325,9.79684335,-0.004677482395344803,0.0002443460952792061,0.0025656340004316645
104055.9068,0.21574629999999997,-0.0392266,9.826263299999999,0.002373647782712288,-0.005340707511102648,-0.001710422666954443
104055.9179,0.32361945,-0.02941995,9.79684335,0.0017453292519943296,-0.012356931104119853,0.002949606435870417
104055.9304,0.20593965,-0.0588399,9.826263299999999,-5.235987755982989e-05,-0.0015533430342749533,-0.0014835298641951802
104055.9430,0.24516625,-0.0196133,9.79684335,0.011274826967883369,0.007452555906015787,0.007976154681614086
104055.9522,0.25497289999999995,-0.0784532,9.7674234,-0.006352998477259359,0.003996803987067015,0.0040666171571467884
104055.9625,0.2745862,-0.10787314999999999,9.757616749999999,0.0045553093477052,-0.0008377580409572782,-0.0004188790204786391
104055.9722,0.2745862,-0.02941995,9.914523149999999,-0.008604473212332044,0.0030892327760299633,0.001308996938995747
104055.9833,0.2745862,0.02941995,9.79684335,-0.0020594885173533086,0.0013264502315156904,0.008080874436733746
104055.9942,0.2745862,-0.02941995,9.747810099999999,0.0037000980142279784,0.003403392041388943,0.002775073510670984
104056.0042,0.2353596,-0.0392266,9.7870367,0.007435102613495843,-0.006649704450098395,-0.0038222710618675817
104056.0143,0.21574629999999997,0.00980665,9.7281968,-0.0023038346126325153,-0.006649704450098395,-0.0079412480965742
104056.0242,0.26477955,-0.00980665,9.845876599999999,-0.0074176493209759005,0.0015533430342749533,-0.006021385919380436
104056.0358,0.30400615,-0.02941995,9.7674234,0.011414453308042916,0.0005759586531581288,0.0028623399732707008
104056.0455,0.2745862,-0.06864655,9.826263299999999,0.00767944870877505,-0.005532693728822024,0.00020943951023931956
104056.0558,0.35303939999999995,-0.00980665,9.7870367,0.00019198621771937625,0.0020943951023931952,0.0005585053606381855
104056.0671,0.24516625,-0.02941995,9.77723005,0.006073745796940267,0.0019896753472735357,-0.0004014257279586958
104056.0754,0.28439285,-0.00980665,9.845876599999999,0.006073745796940267,-0.0045553093477052,-0.0062482787221397
104056.0863,0.20593965,-0.08825984999999999,9.81645665,-0.0003141592653589793,0.0015707963267948964,0.005969026041820607
104056.0972,0.2745862,-0.0784532,9.845876599999999,-0.0017278759594743863,-0.00312413936106985,-0.007592182246175334
104056.1081,0.26477955,-0.02941995,9.8851032,0.0011693705988362008,0.003926990816987242,0.0005759586531581288
104056.1177,0.30400615,-0.0392266,9.80665,0.0042935099599060505,0.0003141592653589793,0.00736528944341607
104056.1277,0.26477955,-0.0980665,9.7870367,-0.0032812189937493396,0.00307177948351002,0.0061959188445798695
104056.1385,0.24516625,0.0,9.7870367,0.001064650843716541,-0.007260569688296411,-0.004537856055185257
104056.1488,0.2353596,-0.0196133,9.855683249999998,0.009843656981248018,0.004468042885105484,-0.0005759586531581288
104056.1590,0.26477955,0.02941995,9.79684335,0.001186823891356144,-0.0027052603405912107,-0.005881759579220891
104056.1694,0.3334261,-0.02941995,9.826263299999999,-0.005532693728822024,-0.0013264502315156904,0.004084070449666731
104056.1821,0.26477955,-0.0784532,9.826263299999999,-0.0007330382858376184,0.004956735075663896,-0.007051130178057092
104056.1922,0.22555294999999997,0.00980665,9.81645665,-0.005881759579220891,5.235987755982989e-05,0.0002617993877991494
104056.2036,0.26477955,-0.06864655,9.836069949999999,-0.009843656981248018,-0.0036302848441482054,-0.011309733552923256
104056.2140,0.2745862,-0.0392266,9.77723005,0.0024434609527920616,0.0025656340004316645,-0.00017453292519943296
104056.2251,0.24516625,-0.0588399,9.7674234,-0.0036302848441482054,-3.490658503988659e-05,0.0009948376736367678
104056.2351,0.30400615,-0.0,9.7870367,0.004799655442984407,0.0027576202181510408,-0.0021991148575128553
104056.2448,0.20593965,-0.02941995,9.836069949999999,-0.001308996938995747,-0.0018675022996339325,-0.0020943951023931952
104056.2556,0.392266,0.0392266,9.757616749999999,-0.00471238898038469,0.0007853981633974482,-0.00301941960595019
104056.2682,0.26477955,-0.10787314999999999,9.80665,-0.010559241974565694,0.002670353755551324,0.005253441048502932
104056.2764,0.34323275000000003,-0.0196133,9.79684335,0.0024609142453120045,-0.003159045946109736,0.0025830872929516074
104056.2855,0.3138128,-0.08825984999999999,9.80665,-0.0028797932657906437,-0.005480333851262195,0.0004537856055185257
104056.2961,0.2353596,-0.08825984999999999,9.79684335,-0.008133234314293577,-0.0026354471705114374,-0.002076941809873252
104056.3066,0.28439285,-0.06864655,9.7674234,-0.00481710873550435,0.0032114058236695662,-0.005044001538263612
104056.3165,0.29419949999999995,-0.0392266,9.845876599999999,0.004694935687864747,5.235987755982989e-05,0.0005585053606381855
104056.3274,0.2745862,-0.0196133,9.80665,-0.002478367537831948,-0.005707226654021458,-0.0007155849933176752
104056.3372,0.22555294999999997,0.0196133,9.7870367,0.006178465552059927,-0.0045204027626653135,-0.0027401669256310974
104056.3485,0.26477955,-0.0196133,9.80665,0.0055152404363020815,-0.0076270888312152205,0.0006283185307179586
104056.3586,0.25497289999999995,-0.04903325,9.79684335,-0.0064228116473391324,0.00778416846389471,0.0012217304763960308
104056.3686,0.26477955,-0.08825984999999999,9.8654899,-0.0020594885173533086,0.0005759586531581288,0.00013962634015954637
104056.3782,0.32361945,-0.08825984999999999,9.757616749999999,0.0004014257279586958,0.004904375198104067,-0.0019722220547535923
104056.3892,0.196133,-0.10787314999999999,9.757616749999999,-0.008133234314293577,0.0030019663134302466,-0.0004886921905584122
104056.3992,0.34323275000000003,-0.0392266,9.7870367,-0.004939281783143952,-0.00015707963267948965,-0.00027925268031909274
104056.4101,0.34323275000000003,0.0588399,9.80665,-0.0003316125578789226,-0.0023038346126325153,0.013700834628155488
104056.4192,0.25497289999999995,-0.0784532,9.836069949999999,-0.0012915436464758037,-0.002827433388230814,0.002356194490192345
104056.4292,0.20593965,0.0,9.7674234,0.004468042885105484,0.0007504915783575617,-0.002722713633111154
104056.4403,0.3138128,-0.04903325,9.8654899,-0.002356194490192345,0.005585053606381855,-0.006108652381980153
104056.4511,0.2745862,-0.04903325,9.747810099999999,-0.0006457718232379018,0.003473205211468716,0.0027925268031909274
104056.4622,0.26477955,-0.04903325,9.80665,-0.0009773843811168245,0.007155849933176751,-0.0017453292519943296
104056.4722,0.30400615,0.04903325,9.77723005,0.0015009831567151233,0.001954768762233649,0.0002617993877991494
104056.4825,0.32361945,-0.0196133,9.80665,-0.00481710873550435,0.0054105206811824215,-0.012147491593880533
104056.4946,0.28439285,-0.08825984999999999,9.79684335,-0.0036302848441482054,0.003490658503988659,0.004485496177625427
104056.5041,0.2745862,-0.0588399,9.7870367,0.0063006385996995295,0.0023212879051524586,-0.0028448866807507574
104056.5150,0.25497289999999995,-0.0392266,9.757616749999999,-0.002373647782712288,-0.003665191429188092,-0.0007330382858376184
104056.5254,0.35303939999999995,0.0392266,9.81645665,0.011850785621041499,0.0045029494701453706,0.007347836150896127
104056.5351,0.25497289999999995,-0.06864655,9.7870367,-0.0007853981633974482,-6.981317007977319e-05,-0.005061454830783556
104056.5461,0.26477955,-0.0196133,9.7674234,-0.0025132741228718345,-0.0038571776469074684,0.0007504915783575617
104056.5565,0.2353596,-0.08825984999999999,9.7674234,0.0021991148575128553,-0.0005410520681182421,0.0008552113334772215
104056.5673,0.28439285,-0.0392266,9.81645665,-0.0045204027626653135,0.0016755160819145565,0.002670353755551324
104056.5784,0.22555294999999997,-0.0,9.81645665,-0.005585053606381855,-0.0018849555921538759,-0.002129301687433082
104056.5894,0.28439285,-0.04903325,9.7674234,0.0050789081233034985,-0.013892820845874863,0.005986479334340551
104056.6003,0.24516625,-0.0196133,9.81645665,-0.0006806784082777885,-0.0010471975511965976,-0.001710422666954443
104056.6103,0.2745862,-0.06864655,9.7870367,0.0021118483949131386,0.0004188790204786391,-0.0012915436464758037
104056.6203,0.3138128,0.0,9.79684335,-0.013055062804917585,0.001413716694115407,-0.003490658503988659
104056.6301,0.26477955,-0.00980665,9.747810099999999,-0.0012042771838760874,0.0013788101090755204,0.0008377580409572782
104056.6412,0.37265269999999995,-0.0392266,9.7674234,-0.014329153158873445,-6.981317007977319e-05,-0.0027576202181510408
104056.6525,0.3138128,-0.04903325,9.747810099999999,0.0061959188445798695,-0.0020594885173533086,0.008342673824532895
104056.6635,0.2745862,-0.0196133,9.79684335,-1.7453292519943296e-05,-0.005497787143782138,0.002722713633111154
104056.6729,0.34323275000000003,-0.0392266,9.855683249999998,-0.000767944870877505,0.0011519173063162576,0.0021991148575128553
104056.6827,0.21574629999999997,-0.00980665,9.8654899,-0.0008726646259971648,-0.008342673824532895,0.0032288591161895096
104056.6949,0.22555294999999997,-0.08825984999999999,9.836069949999999,-0.001832595714594046,0.006457718232379019,0.0011519173063162576
104056.7043,0.29419949999999995,-0.0588399,9.836069949999999,-0.007278022980816354,0.0003141592653589793,-0.005009094953223725
104056.7154,0.24516625,-0.0588399,9.80665,0.0022165681500327986,-0.0038048177693476384,-0.003543018381548489
104056.7265,0.2353596,-0.08825984999999999,9.826263299999999,-0.0025656340004316645,0.005794493116621174,-0.001710422666954443
104056.7374,0.2353596,0.0,9.7870367,0.00926769832808989,-0.007801621756414653,0.0041887902047863905
104056.7484,0.29419949999999995,-0.0392266,9.7870367,0.0005235987755982988,-0.005096361415823442,0.002617993877991494
104056.7582,0.2745862,-0.08825984999999999,9.7281968,0.0076445421237351634,0.002007128639793479,0.0005061454830783556
104056.7710,0.35303939999999995,0.00980665,9.7674234,-0.003996803987067015,0.0011693705988362008,-0.005532693728822024
104056.7807,0.6668522,0.06864655,9.81645665,-0.0041887902047863905,0.002548180707911721,-0.0016057029118347831
104056.7905,0.9022117999999999,-0.00980665,9.855683249999998,-0.0024609142453120045,0.0023911010752322315,-0.0021467549799530253
104056.8004,1.1179581,-0.04903325,9.77723005,-0.0005585053606381855,0.0054105206811824215,0.004642575810304917
104056.8104,1.1767979999999998,0.0196133,9.81645665,-0.004904375198104067,0.0022165681500327986,0.002617993877991494
104056.8206,1.0002783,-0.0196133,9.7674234,-0.005899212871740834,0.0013788101090755204,0.0016406094968746698
104056.8315,0.6276256,-0.0980665,9.757616749999999,0.0006283185307179586,0.0017976891295541594,0.0017453292519943296
104056.8427,0.3334261,-0.06864655,9.7674234,-0.0034557519189487725,-0.004031710572106902,-0.0010297442586766543
104056.8529,0.3334261,-0.1176798,9.747810099999999,-0.00312413936106985,-0.005480333851262195,-0.0004014257279586958
104056.8619,0.48052585,-0.06864655,9.855683249999998,-0.00022689280275926284,1.7453292519943296e-05,0.0033161255787892262
104056.8725,0.5982056499999999,-0.1372931,9.875296549999998,-0.0015009831567151233,0.0018849555921538759,0.008080874436733746
104056.8833,0.55897905,-0.14709974999999997,9.80665,0.010786134777324957,-0.008761552845011534,-0.0028797932657906437
104056.8935,0.45110589999999995,-0.04903325,9.747810099999999,-0.005986479334340551,-0.0004886921905584122,-0.005811946409141118
104056.9033,0.4118793,-0.04903325,9.79684335,0.0012566370614359172,-0.00486946861306418,-0.0029670597283903604
104056.9133,0.32361945,-0.04903325,9.77723005,0.005009094953223725,-0.006073745796940267,0.0004188790204786391
104056.9243,0.24516625,-0.0196133,9.71839015,-0.0020420352248333657,0.00747000919853573,-0.010454522219446033
104056.9354,0.392266,-0.00980665,9.738003449999999,0.003735004599267865,0.0049741883681838385,0.0021642082724729686
104056.9478,0.45110589999999995,-0.02941995,9.7870367,0.0011693705988362008,0.0008203047484373349,-0.001762782544514273
104056.9586,0.37265269999999995,0.0196133,9.738003449999999,0.000296705972839036,1.7453292519943296e-05,-0.0021991148575128553
104056.9684,0.29419949999999995,0.0392266,9.747810099999999,0.0006283185307179586,0.00153588974175501,0.010000736613927507
104056.9782,0.2745862,0.0,9.836069949999999,0.0060911990894602095,-0.001239183768915974,0.0029845130209103037
104056.9883,0.20593965,0.0392266,9.826263299999999,0.004886921905584123,0.0013439035240356337,-0.00019198621771937625
104056.9984,0.2353596,-0.0392266,9.875296549999998,-0.0032288591161895096,-0.0064053583548191895,-0.0003316125578789226
104057.0084,0.28439285,-0.0392266,9.79684335,-0.0022689280275926286,-0.0012042771838760874,0.0037175513067479217
104057.0193,0.26477955,-0.02941995,9.836069949999999,-0.001186823891356144,-0.0009250245035569946,0.0008552113334772215
104057.0287,0.29419949999999995,-0.0588399,9.747810099999999,-0.012601277199399059,-0.0012042771838760874,0.001710422666954443
104057.0402,0.21574629999999997,-0.08825984999999999,9.80665,0.0005410520681182421,0.002356194490192345,0.004363323129985824
104057.0499,0.16671305,-0.0980665,9.79684335,0.0004363323129985824,0.003787364476827695,0.0004537856055185257
104057.0599,0.20593965,-0.02941995,9.875296549999998,-0.00020943951023931956,0.0019024088846738192,0.0010821041362364843
104057.0699,0.26477955,0.0,9.747810099999999,0.008779006137531478,0.009093165402890457,-0.0016580627893946131
104057.0793,0.2745862,0.0196133,9.826263299999999,0.0016057029118347831,0.004136430327226561,0.004258603374866164
104057.0893,0.32361945,-0.08825984999999999,9.80665,-0.005131268000863329,-0.006492624817418906,-0.0017976891295541594
104057.0991,0.22555294999999997,-0.08825984999999999,9.79684335,0.001832595714594046,-0.0018500490071139892,0.007016223593017205
104057.1100,0.196133,-0.06864655,9.826263299999999,0.005235987755982988,0.0003141592653589793,-0.0006108652381980154
104057.1209,0.20593965,-0.0,9.7674234,-0.0018500490071139892,0.002548180707911721,-0.007696902001294993
104057.1315,0.25497289999999995,-0.00980665,9.845876599999999,-0.0022514747350726853,-0.0008028514559173916,-0.003979350694547071
104057.1428,0.24516625,-0.04903325,9.836069949999999,-0.005026548245743669,0.003560471674068432,-0.0065100781099388496
104057.1518,0.2745862,0.0,9.79684335,-0.002129301687433082,0.003996803987067015,-0.0009948376736367678
104057.1641,0.28439285,-0.0588399,9.71839015,0.005689773361501515,0.0018675022996339325,-0.001117010721276371
104057.1763,0.24516625,-0.0,9.8851032,-0.0013788101090755204,-0.006370451769779303,0.007120943348136864
104057.1861,0.28439285,-0.06864655,9.836069949999999,0.0005585053606381855,-0.002478367537831948,0.002670353755551324
104057.1977,0.24516625,-0.0588399,9.79684335,-0.0006108652381980154,-0.0060911990894602095,0.0012915436464758037
104057.2071,0.26477955,-0.06864655,9.81645665,-0.0033684854563490563,0.005864306286700947,0.00312413936106985
104057.2179,0.25497289999999995,-0.0784532,9.81645665,-0.007661995416255106,-0.0020943951023931952,0.006265732014659643
104057.2295,0.25497289999999995,-0.06864655,9.81645665,-0.0037000980142279784,0.005323254218582705,-0.002722713633111154
104057.2389,0.17651969999999997,-0.04903325,9.7281968,-0.006161012259539983,0.0006806784082777885,0.007347836150896127
104057.2486,0.25497289999999995,-0.02941995,9.81645665,-0.0031764992386296795,-0.0046251225177849735,0.006579891280018622
104057.2589,0.28439285,0.00980665,9.79684335,0.002356194490192345,-0.0030543261909900766,-0.011571532940722405
104057.2689,0.26477955,-0.0,9.8654899,0.00942477796076938,-0.0033161255787892262,-0.0003316125578789226
104057.2789,0.3138128,-0.0588399,9.8654899,0.0012915436464758037,0.0006806784082777885,-0.004241150082346221
104057.2898,0.25497289999999995,-0.0196133,9.855683249999998,0.0029146998508305304,0.011571532940722405,-0.002617993877991494
104057.3006,0.20593965,0.02941995,9.80665,-0.007033676885537149,0.009337511498169663,-0.007504915783575617
104057.3102,0.21574629999999997,-0.00980665,9.8851032,0.0017278759594743863,-0.0061959188445798695,0.0011519173063162576
104057.3208,0.26477955,-0.0392266,9.80665,-0.0011519173063162576,0.0007155849933176752,0.0026529004630313807
104057.3321,0.2745862,-0.06864655,9.747810099999999,-0.006475171524898963,0.0040666171571467884,-0.0021118483949131386
104057.3430,0.26477955,-0.0784532,9.77723005,-0.007120943348136864,0.005427973973702365,-0.003682644721708035
104057.3526,0.29419949999999995,-0.0588399,9.7281968,0.009546951008408983,0.0029845130209103037,0.002129301687433082
104057.3633,0.25497289999999995,-0.0196133,9.80665,-0.0007330382858376184,-0.003490658503988659,-0.00445058959258554
104057.3742,0.2745862,0.00980665,9.845876599999999,0.009564404300928926,0.001710422666954443,0.004363323129985824
104057.3853,0.2353596,-0.0784532,9.875296549999998,-0.00476474885794452,-5.235987755982989e-05,0.0059515727493006645
104057.3961,0.24516625,-0.08825984999999999,9.77723005,0.0014486232791552935,-0.0026005405854715507,-0.0011693705988362008
104057.4078,0.21574629999999997,-0.0784532,9.855683249999998,0.000890117918517108,0.0015184364492350666,-0.006894050545377602
104057.4172,0.2745862,0.00980665,9.845876599999999,0.0013264502315156904,0.006841690667817772,0.0005410520681182421
104057.4282,0.20593965,-0.08825984999999999,9.7674234,-0.006265732014659643,0.0010995574287564276,0.0031764992386296795
104057.4400,0.2745862,-0.0588399,9.77723005,-0.011588986233242348,0.00047123889803846896,0.003839724354387525
104057.4499,0.28439285,-0.08825984999999999,9.855683249999998,0.0048520153205442364,0.0038571776469074684,0.001064650843716541
104057.4642,0.25497289999999995,-0.0392266,9.77723005,-0.008918632477691025,0.0016929693744344998,0.009965830028887622
104057.4754,0.28439285,-0.10787314999999999,9.80665,0.0018849555921538759,-0.001710422666954443,0.005497787143782138
104057.4964,0.2745862,-0.0980665,9.836069949999999,0.002827433388230814,0.00012217304763960306,0.002007128639793479
104057.5074,0.25497289999999995,-0.0784532,9.7281968,0.0032637657012293962,0.0019198621771937625,0.0012740903539558606
104057.5184,0.21574629999999997,-0.00980665,9.81645665,-0.0003665191429188092,0.0008028514559173916,-0.004136430327226561
104057.5297,0.2745862,-0.00980665,9.845876599999999,0.007958701389094143,0.002530727415391778,-0.003926990816987242
104057.5395,0.28439285,-0.0392266,9.747810099999999,-0.001239183768915974,-0.0014660765716752368,0.0004188790204786391
104057.5494,0.16671305,-0.02941995,9.7870367,-0.00015707963267948965,-0.0029845130209103037,0.011763519158441782
104057.5593,0.26477955,-0.06864655,9.77723005,0.005288347633542819,-0.0016755160819145565,0.0011519173063162576
104057.5703,0.25497289999999995,-0.0392266,9.7281968,0.0009075712110370514,-0.0003665191429188092,-0.003298672286269283
104057.5812,0.24516625,-0.10787314999999999,9.77723005,-0.004206243497306334,-0.0043982297150257105,0.004014257279586958
104057.5922,0.2745862,-0.04903325,9.79684335,-0.0017453292519943296,0.004223696789826277,-0.005393067388662479
104057.6025,0.20593965,-0.0196133,9.7674234,0.003159045946109736,0.0016755160819145565,-0.008185594191853406
104057.6131,0.30400615,-0.0196133,9.826263299999999,-0.003560471674068432,-0.0010297442586766543,0.002548180707911721
104057.6240,0.3138128,-0.0392266,9.79684335,0.0014311699866353504,-0.010489428804485921,-0.00034906585039886593
104057.6338,0.20593965,-0.0980665,9.836069949999999,0.0021642082724729686,-0.00012217304763960306,-0.00890117918517108
104057.6437,0.24516625,-0.0196133,9.757616749999999,-0.0032637657012293962,-0.0012042771838760874,0.0028623399732707008
104057.6536,0.22555294999999997,-0.02941995,9.855683249999998,0.008464846872172497,0.0014660765716752368,-0.010925761117484502
104057.6637,0.22555294999999997,-0.02941995,9.826263299999999,0.004014257279586958,0.0025656340004316645,0.0038222710618675817
104057.6740,0.29419949999999995,-0.06864655,9.8654899,0.0017453292519943296,-0.006003932626860493,-0.003298672286269283
104057.6839,0.17651969999999997,0.0196133,9.7674234,0.00153588974175501,-0.005445427266222308,-0.001064650843716541
104057.6938,0.34323275000000003,0.02941995,9.7870367,0.010943214410004447,0.0035779249665883754,0.005009094953223725
104057.7041,0.20593965,-0.0196133,9.77723005,-0.005689773361501515,0.0008726646259971648,0.003525565089028546
104057.7142,0.28439285,-0.0196133,9.7870367,-0.0029146998508305304,-0.0032288591161895096,0.009651670763528642
104057.7251,0.2353596,0.00980665,9.7281968,0.00027925268031909274,-0.0028099800957108708,-0.0050789081233034985
104057.7352,0.3138128,0.04903325,9.80665,0.004328416544945937,0.0004363323129985824,-0.0033684854563490563
104057.7450,0.2745862,-0.0392266,9.7870367,-0.0007853981633974482,0.003735004599267865,-0.0025132741228718345
104057.7562,0.28439285,0.0196133,9.77723005,-0.005829399701661061,-0.0045553093477052,0.0029845130209103037
104057.7673,0.16671305,-0.0784532,9.747810099999999,-0.006126105674500096,0.008080874436733746,-0.001117010721276371
104057.7773,0.0784532,-0.02941995,9.855683249999998,0.0018849555921538759,0.0013264502315156904,-0.0011519173063162576
104057.7883,0.0392266,-0.0392266,9.7674234,0.002129301687433082,0.006998770300497262,0.007243116395776467
104057.7992,0.08825984999999999,-0.04903325,9.77723005,-0.009756390518648303,-0.0019373154697137059,0.0024609142453120045
104057.8103,0.10787314999999999,-0.06864655,9.8851032,0.004886921905584123,-0.007243116395776467,-0.0038222710618675817
104057.8209,-0.17651969999999997,-0.0392266,9.924329799999999,0.006056292504420323,0.012915436464758038,-0.0027052603405912107
104057.8317,-0.73549875,-0.10787314999999999,9.836069949999999,-0.00153588974175501,-0.0006806784082777885,-0.001239183768915974
104057.8418,-1.01008495,0.08825984999999999,9.757616749999999,0.0038048177693476384,0.0020420352248333657,-0.0023038346126325153
104057.8515,-0.8531785499999999,0.0392266,9.836069949999999,0.0018849555921538759,-0.003159045946109736,0.007225663103256524
104057.8621,-0.25497289999999995,0.0196133,9.836069949999999,-0.003159045946109736,0.0026354471705114374,-0.014608405839192538
104057.8718,0.18632634999999997,-0.0392266,9.757616749999999,0.000593411945678072,-0.0030543261909900766,-0.008464846872172497
104057.8829,0.3334261,-0.0392266,9.80665,0.002530727415391778,-0.005567600313861911,-0.004572762640225144
104057.8941,0.22555294999999997,-0.0784532,9.80665,-0.003892084231947355,-0.0037000980142279784,-0.0010471975511965976
104057.9047,-0.12748644999999997,-0.0588399,9.875296549999998,0.00445058959258554,-0.0041887902047863905,-0.0011693705988362008
104057.9152,-0.32361945,-0.00980665,9.757616749999999,0.0011344640137963143,0.004572762640225144,-0.0046251225177849735
104057.9245,0.0392266,-0.10787314999999999,9.7674234,0.0014660765716752368,-0.005009094953223725,-0.0051836278784231585
104057.9344,0.3138128,-0.04903325,9.79684335,-0.004101523742186674,0.0006981317007977319,-0.002408554367752175
104057.9444,0.61781895,-0.1569064,9.7870367,-0.004101523742186674,-0.004642575810304917,-0.00973893722612836
104057.9555,0.4216859499999999,-0.0196133,9.738003449999999,-0.005270894341022875,0.0054105206811824215,-0.003979350694547071
104057.9651,0.21574629999999997,-0.0980665,9.7085835,-0.004136430327226561,-0.007853981633974483,-0.0072954762733362976
104057.9766,-0.10787314999999999,-0.0588399,9.80665,-0.0012042771838760874,-0.00019198621771937625,-0.0009250245035569946
104057.9886,-0.1372931,-0.0588399,9.845876599999999,-0.0008028514559173916,-0.003926990816987242,-0.0014660765716752368
104057.9985,0.36284605,0.02941995,9.826263299999999,0.0010122909661567112,0.0007155849933176752,-0.000593411945678072
104058.0086,0.67665885,-0.12748644999999997,9.81645665,0.0056199601914217415,0.00019198621771937625,0.003420845333908886
104058.0184,0.73549875,-0.0196133,9.80665,-0.0006981317007977319,-0.00471238898038469,-0.007923794804054257
104058.0289,0.5491724,0.0,9.79684335,0.0007155849933176752,0.0016231562043547264,0.0002617993877991494
104058.0402,0.30400615,-0.00980665,9.738003449999999,-0.00937241808320955,-0.0030543261909900766,-0.0044156830075456534
104058.0502,0.25497289999999995,-0.0784532,9.875296549999998,-0.006579891280018622,-0.0015533430342749533,0.004276056667386108
104058.0611,0.37265269999999995,-0.0980665,9.836069949999999,0.007958701389094143,-0.0023911010752322315,-0.0017976891295541594
104058.0721,0.43149259999999995,-0.1176798,9.81645665,6.981317007977319e-05,-0.004310963252425994,-0.0005235987755982988
104058.0830,0.6864655000000001,-0.02941995,9.826263299999999,5.235987755982989e-05,0.003159045946109736,0.000890117918517108
104058.0932,0.45110589999999995,-0.0980665,9.80665,0.012356931104119853,0.0002443460952792061,0.001710422666954443
104058.1034,0.34323275000000003,-0.02941995,9.81645665,-0.0004886921905584122,-0.001308996938995747,-0.005270894341022875
104058.1128,0.24516625,0.04903325,9.826263299999999,-0.0016580627893946131,0.001361356816555577,0.00047123889803846896
104058.1236,0.196133,-0.06864655,9.855683249999998,-0.0045553093477052,-0.001186823891356144,-0.001239183768915974
104058.1337,0.392266,-0.0392266,9.71839015,-0.0035779249665883754,-0.006108652381980153,0.007120943348136864
104058.1435,0.43149259999999995,0.0,9.7674234,0.0016755160819145565,-0.0025132741228718345,-0.001780235837034216
104058.1542,0.46091255,-0.0196133,9.7281968,0.003473205211468716,-0.003996803987067015,0.001186823891356144
104058.1650,0.3334261,-0.06864655,9.7870367,0.011152653920243767,-0.009616764178488757,0.0015882496193148398
104058.1793,0.1176798,-0.02941995,9.836069949999999,0.004328416544945937,0.005707226654021458,0.0038571776469074684
104058.1888,0.18632634999999997,-0.04903325,9.8851032,-0.006771877497737999,0.004031710572106902,0.00767944870877505
104058.1986,0.3138128,-0.00980665,9.77723005,0.00614355896702004,0.0036477381366681488,-0.0019722220547535923
104058.2088,0.3138128,-0.04903325,9.845876599999999,-0.0032812189937493396,-0.00942477796076938,-0.0049741883681838385
104058.2184,0.29419949999999995,-0.00980665,9.81645665,0.001762782544514273,0.0025132741228718345,0.00301941960595019
104058.2295,0.25497289999999995,-0.0588399,9.79684335,-0.010943214410004447,0.0026878070480712674,0.005567600313861911
104058.2394,0.17651969999999997,-0.00980665,9.7870367,0.014800392056911913,-0.007260569688296411,0.008587019919812101
104058.2491,0.196133,-0.02941995,9.836069949999999,-0.0003665191429188092,0.003839724354387525,-0.006318091892219472
104058.2592,0.26477955,0.00980665,9.80665,-0.0008028514559173916,0.004939281783143952,-0.0018500490071139892
104058.2718,0.2745862,-0.06864655,9.845876599999999,-0.004118977034706617,0.0020943951023931952,-0.004921828490624009
104058.2793,0.40207265,-0.0588399,9.79684335,0.001762782544514273,-0.002408554367752175,-0.007382742735936014
104058.2903,0.26477955,-0.04903325,9.80665,-0.005480333851262195,-0.003909537524467298,0.0014311699866353504
104058.3003,0.14709974999999997,-0.02941995,9.826263299999999,0.0009948376736367678,-0.003612831551628262,-0.0021991148575128553
104058.3103,0.21574629999999997,0.06864655,9.81645665,0.005916666164260778,-0.0029670597283903604,-0.0070685834705770355
104058.3211,0.25497289999999995,-0.04903325,9.855683249999998,0.001954768762233649,0.0027576202181510408,0.00027925268031909274
104058.3320,0.35303939999999995,0.02941995,9.80665,0.002286381320112572,-0.0037175513067479217,0.0017278759594743863
104058.3434,0.30400615,-0.02941995,9.7674234,0.00301941960595019,-0.0050789081233034985,-0.0032637657012293962
104058.3545,0.2745862,-0.0392266,9.81645665,-0.001780235837034216,-0.0012042771838760874,0.0037524578917878084
104058.3638,0.2745862,-0.0,9.81645665,0.005375614096142535,0.009756390518648303,0.0016580627893946131
104058.3737,0.26477955,-0.06864655,9.7674234,0.0006632251157578452,-0.0023212879051524586,-0.0019722220547535923
104058.3836,0.2745862,-0.0588399,9.81645665,-0.0038222710618675817,0.006981317007977318,-0.001186823891356144
104058.3935,0.3334261,-0.06864655,9.80665,-0.0017976891295541594,-0.004747295565424576,0.0012042771838760874
104058.4033,0.3138128,-0.0784532,9.747810099999999,0.0038746309394274117,0.0010297442586766543,0.00757472895365539
104058.4134,0.2353596,0.00980665,9.836069949999999,-0.003926990816987242,0.0004188790204786391,-0.004084070449666731
104058.4244,0.21574629999999997,-0.06864655,9.738003449999999,-0.0016929693744344998,-0.0003839724354387525,-0.0014311699866353504
104058.4339,0.14709974999999997,-0.0588399,9.80665,0.002495820830351891,0.0012217304763960308,0.003543018381548489
104058.4452,0.26477955,-0.0196133,9.80665,0.008360127117052838,-0.007243116395776467,0.0052010811709431014
104058.4549,0.26477955,-0.04903325,9.826263299999999,-0.0014835298641951802,0.0020420352248333657,0.00312413936106985
104058.4646,0.30400615,-0.10787314999999999,9.836069949999999,0.0021467549799530253,-0.002548180707911721,-0.003159045946109736
104058.4749,0.196133,-0.00980665,9.77723005,0.0002617993877991494,0.003892084231947355,0.0009948376736367678
104058.4844,0.2353596,-0.04903325,9.77723005,0.0020420352248333657,0.00020943951023931956,-0.002617993877991494
104058.4955,0.24516625,-0.02941995,9.81645665,0.0019373154697137059,-0.0007504915783575617,-0.001780235837034216
104058.5053,0.2353596,-0.0784532,9.826263299999999,-0.007452555906015787,0.006876597252857658,0.002722713633111154
104058.5151,0.2745862,0.00980665,9.81645665,0.003735004599267865,-0.006475171524898963,-0.00019198621771937625
104058.5256,0.3138128,-0.02941995,9.8654899,-0.003298672286269283,-0.010210176124166827,-0.002007128639793479
104058.5351,0.26477955,-0.08825984999999999,9.79684335,-0.0009599310885968813,-0.0007330382858376184,5.235987755982989e-05
104058.5462,0.30400615,-0.08825984999999999,9.7870367,0.0007330382858376184,0.00012217304763960306,-0.001762782544514273
104058.5564,0.24516625,-0.06864655,9.7870367,0.00471238898038469,-0.007051130178057092,0.006702064327658226
104058.5652,0.22555294999999997,-0.00980665,9.80665,-0.006178465552059927,0.0029146998508305304,0.007051130178057092
104058.5757,0.35303939999999995,-0.06864655,9.826263299999999,0.0045029494701453706,-0.0012915436464758037,0.000890117918517108
104058.5862,0.26477955,-0.0980665,9.79684335,-0.0014660765716752368,-0.0017278759594743863,-0.0003665191429188092
104058.5953,0.28439285,0.00980665,9.79684335,0.00022689280275926284,0.005061454830783556,0.001762782544514273
104058.6053,0.28439285,-0.08825984999999999,9.836069949999999,0.0010995574287564276,-0.001710422666954443,-0.0008028514559173916
104058.6150,0.21574629999999997,-0.0,9.826263299999999,-0.00445058959258554,-0.0056199601914217415,0.0005759586531581288
104058.6262,0.20593965,0.02941995,9.7674234,-0.0040666171571467884,0.0027401669256310974,-0.009896016858807848
104058.6370,0.3138128,-0.0392266,9.8654899,0.0068591439603377154,-0.0014311699866353504,-0.006003932626860493
104058.6482,0.36284605,-0.0980665,9.7674234,0.005218534463463045,-0.003612831551628262,0.0010122909661567112
104058.6591,0.2745862,-0.04903325,9.7674234,-0.0021467549799530253,0.0017278759594743863,-0.0030019663134302466
104058.6700,0.28439285,-0.08825984999999999,9.77723005,0.0004188790204786391,-0.0013264502315156904,0.005358160803622592
104058.6810,0.2353596,-0.0392266,9.81645665,-0.004485496177625427,-0.0032637657012293962,0.002181661564992912
104058.6925,0.28439285,-0.0392266,9.836069949999999,-0.005759586531581287,0.0016057029118347831,0.0028448866807507574
104058.7022,0.2745862,-0.0588399,9.7870367,-0.0025656340004316645,0.011100294042683936,0.00932005820564972
104058.7125,0.30400615,-0.04903325,9.7674234,0.004799655442984407,0.001308996938995747,0.0067369709126981125
104058.7221,0.2745862,-0.02941995,9.845876599999999,0.000296705972839036,-0.0027925268031909274,-0.0014311699866353504
104058.7331,0.29419949999999995,-0.0588399,9.7674234,0.00747000919853573,0.0017453292519943296,-0.004485496177625427
104058.7449,0.30400615,-0.04903325,9.7870367,-0.013072516097437528,-0.0011344640137963143,0.0011344640137963143
104058.7562,0.24516625,-0.0784532,9.826263299999999,-0.0035779249665883754,-0.004747295565424576,-0.0010995574287564276
104058.7672,0.3334261,-0.00980665,9.845876599999999,-0.0020594885173533086,-0.0003316125578789226,-0.0018151424220741027
104058.7775,0.28439285,-0.0196133,9.80665,-0.0038571776469074684,0.002670353755551324,0.0023212879051524586
104058.7878,0.25497289999999995,0.02941995,9.914523149999999,0.003193952531149623,-0.0072954762733362976,0.001762782544514273
104058.7985,0.25497289999999995,-0.04903325,9.7870367,-0.0036477381366681488,0.001710422666954443,-1.7453292519943296e-05
104058.8086,0.20593965,-0.02941995,9.81645665,-0.0003141592653589793,0.004572762640225144,0.00010471975511965978
104058.8213,0.28439285,-0.00980665,9.836069949999999,0.0019373154697137059,-0.0032637657012293962,0.005899212871740834
104058.8371,0.26477955,-0.0196133,9.7674234,0.0032114058236695662,-0.00476474885794452,0.003560471674068432
104058.8473,0.2745862,-0.0784532,9.836069949999999,-0.004031710572106902,0.005166174585903215,-0.0038222710618675817
104058.8645,0.18632634999999997,-0.00980665,9.79684335,-0.004590215932745087,0.0067369709126981125,-0.0035081117965086025
104058.8744,0.2353596,0.00980665,9.80665,0.0018151424220741027,0.006440264939859076,-0.009232791743050004
104058.8853,0.29419949999999995,0.00980665,9.7870367,0.0030019663134302466,-0.006562437987498679,-0.007033676885537149
104058.8950,0.3138128,0.00980665,9.79684335,0.007801621756414653,-0.007173303225696694,-0.005550147021341968
104058.9048,0.28439285,-0.02941995,9.79684335,-0.006928957130417489,0.0018849555921538759,-0.0004188790204786391
104058.9159,0.28439285,-0.0392266,9.80665,-0.010786134777324957,-0.00747000919853573,0.0008377580409572782
104058.9264,0.32361945,-0.0588399,9.738003449999999,-0.004782202150464463,-0.007155849933176751,-0.0003316125578789226
104058.9372,0.2353596,-0.0392266,9.7674234,0.0009948376736367678,-0.005427973973702365,-0.007958701389094143
104058.9483,0.24516625,-0.04903325,9.826263299999999,-0.0021118483949131386,-0.002373647782712288,0.0079412480965742
104058.9601,0.35303939999999995,-0.00980665,9.71839015,-0.004258603374866164,0.0018849555921538759,-0.004677482395344803
104058.9708,0.2353596,0.00980665,9.7870367,0.01017526953912694,0.0021991148575128553,-0.004049163864626845
104058.9824,0.26477955,-0.0,9.757616749999999,0.0029146998508305304,0.003543018381548489,0.002007128639793479
104058.9924,0.18632634999999997,-0.04903325,9.8654899,0.01059414855960558,0.00047123889803846896,-0.005218534463463045
104059.0021,0.28439285,-0.08825984999999999,9.7674234,0.001954768762233649,-0.002495820830351891,-0.0005410520681182421
104059.0123,0.28439285,-0.00980665,9.77723005,0.0007853981633974482,-0.0007155849933176752,0.004118977034706617
104059.0297,0.3334261,-0.04903325,9.845876599999999,-0.0007330382858376184,-0.0038571776469074684,0.0003141592653589793
104059.0408,0.29419949999999995,-0.0196133,9.855683249999998,-0.007661995416255106,0.005131268000863329,-0.0030543261909900766
104059.0507,0.2745862,-0.0980665,9.826263299999999,0.000767944870877505,-0.0054105206811824215,0.001780235837034216
104059.0607,0.29419949999999995,-0.0588399,9.826263299999999,0.002897246558310587,-0.0030368728984701333,0.0021991148575128553
104059.0714,0.21574629999999997,0.00980665,9.77723005,0.005427973973702365,-0.0027401669256310974,-0.003525565089028546
104059.0815,0.29419949999999995,0.00980665,9.747810099999999,-0.005777039824101231,-0.003193952531149623,0.0022165681500327986
104059.0918,0.2745862,-0.00980665,9.77723005,0.009930923443847734,-0.003246312408709453,0.005689773361501515
104059.1014,0.26477955,-0.06864655,9.826263299999999,0.005881759579220891,-0.0053058009260627615,0.007278022980816354
104059.1117,0.22555294999999997,-0.02941995,9.826263299999999,0.0033161255787892262,0.003944444109507185,0.0009424777960769379
104059.1225,0.21574629999999997,-0.00980665,9.77723005,0.0066322511575784525,-0.005916666164260778,0.0044156830075456534
104059.1324,0.21574629999999997,-0.00980665,9.81645665,-0.001832595714594046,-0.0036302848441482054,-0.003525565089028546
104059.1431,0.2353596,-0.10787314999999999,9.81645665,-0.004276056667386108,0.001954768762233649,0.004118977034706617
104059.1588,0.29419949999999995,-0.04903325,9.79684335,0.011955505376161158,-0.0029321531433504737,-0.0016406094968746698
104059.1646,0.32361945,0.00980665,9.77723005,8.726646259971648e-05,-0.004380776422505767,-0.0010995574287564276
104059.1797,0.24516625,-0.0784532,9.7674234,-0.005218534463463045,0.0027052603405912107,0.004433136300065597
104059.1873,0.26477955,-0.0980665,9.836069949999999,0.008447393579652554,0.0014486232791552935,0.001762782544514273
104059.1973,0.18632634999999997,-0.0588399,9.855683249999998,-0.004171336912266448,-0.0007155849933176752,0.0003839724354387525
104059.2072,0.24516625,-0.0196133,9.80665,0.0065100781099388496,-0.0003316125578789226,0.0032288591161895096
104059.2173,0.30400615,-0.00980665,9.855683249999998,0.005235987755982988,-0.00022689280275926284,-0.005881759579220891
104059.2273,0.2353596,-0.06864655,9.77723005,-0.0016231562043547264,0.0004886921905584122,0.002076941809873252
104059.2381,0.3138128,-0.08825984999999999,9.836069949999999,0.0024609142453120045,0.00017453292519943296,0.0003665191429188092
104059.2482,0.18632634999999997,-0.0980665,9.81645665,-0.0025830872929516074,0.0006283185307179586,0.0003839724354387525
104059.2583,0.2745862,-0.0392266,9.80665,0.002007128639793479,0.0013962634015954637,0.00027925268031909274
104059.2674,0.30400615,-0.04903325,9.747810099999999,0.0027576202181510408,-0.0012740903539558606,0.008726646259971648
104059.2790,0.25497289999999995,0.02941995,9.79684335,0.0007155849933176752,0.0033161255787892262,0.0020594885173533086
104059.2900,0.3334261,-0.06864655,9.81645665,0.0006283185307179586,0.0004886921905584122,0.0019373154697137059
104059.2996,0.24516625,-0.08825984999999999,9.81645665,0.008831366015091307,-0.0005585053606381855,-0.007504915783575617
104059.3107,0.24516625,-0.0588399,9.81645665,0.0028448866807507574,-0.0003665191429188092,0.0008726646259971648
104059.3208,0.29419949999999995,-0.00980665,9.7870367,-0.005044001538263612,-0.000890117918517108,-0.006003932626860493
104059.3307,0.24516625,-0.04903325,9.79684335,0.004136430327226561,0.008831366015091307,0.005462880558742251
104059.3406,0.2745862,-0.10787314999999999,9.80665,0.0011693705988362008,0.0004537856055185257,-0.003892084231947355
104059.3506,0.26477955,-0.0784532,9.826263299999999,-0.002373647782712288,-0.0012915436464758037,0.0005759586531581288
104059.3607,0.29419949999999995,-0.0588399,9.80665,-0.0017278759594743863,-0.008569566627292158,0.0058468529941810045
104059.3722,0.26477955,-0.00980665,9.80665,-0.008011061266653973,-0.0005759586531581288,-0.0006981317007977319
104059.3821,0.22555294999999997,-0.02941995,9.757616749999999,-0.0045204027626653135,-0.0012042771838760874,0.003525565089028546
104059.3927,0.3334261,-0.06864655,9.79684335,-0.0066322511575784525,0.00153588974175501,-0.006213372137099813
104059.4023,0.2353596,-0.00980665,9.80665,-0.00020943951023931956,0.002356194490192345,-0.0041887902047863905
104059.4143,0.2353596,-0.02941995,9.80665,-0.003525565089028546,-0.0045029494701453706,-0.004310963252425994
104059.4263,0.18632634999999997,-0.04903325,9.77723005,0.0038571776469074684,0.008237954069413234,-0.002181661564992912
104059.4371,0.21574629999999997,-0.0588399,9.81645665,0.0037524578917878084,-0.0038746309394274117,0.001064650843716541
104059.4476,0.26477955,-0.0196133,9.8654899,-0.010663961729685353,-0.004677482395344803,0.0016231562043547264
104059.4573,0.26477955,-0.1176798,9.845876599999999,-0.005026548245743669,-0.0068591439603377154,-0.0005235987755982988
104059.4679,0.22555294999999997,-0.0392266,9.757616749999999,-0.004904375198104067,0.004223696789826277,0.0064053583548191895
104059.4778,0.35303939999999995,-0.0588399,9.77723005,-0.0006283185307179586,-0.010245082709206713,0.010506882097005864
104059.4888,0.26477955,-0.00980665,9.836069949999999,-0.00012217304763960306,-0.0014486232791552935,-0.003892084231947355
104059.4986,0.2745862,-0.00980665,9.836069949999999,-0.0019198621771937625,0.006544984694978736,-0.009913470151327791
104059.5100,0.2745862,-0.0392266,9.845876599999999,-0.011100294042683936,-0.004485496177625427,0.0004537856055185257
104059.5191,0.18632634999999997,-0.08825984999999999,9.8851032,-6.981317007977319e-05,0.002408554367752175,0.0063006385996995295
104059.5289,0.2353596,-0.0196133,9.80665,-0.008185594191853406,0.002897246558310587,0.002478367537831948
104059.5402,0.30400615,-0.02941995,9.79684335,-0.0027401669256310974,-0.0014311699866353504,-0.0020943951023931952
104059.5535,0.29419949999999995,0.0,9.81645665,0.0023911010752322315,-0.003298672286269283,-0.010681415022205296
104059.5631,0.28439285,-0.0196133,9.80665,-0.0013439035240356337,0.007260569688296411,0.0023911010752322315
104059.5742,0.28439285,-0.0392266,9.81645665,0.0022689280275926286,0.0017976891295541594,-0.003892084231947355
104059.5851,0.30400615,-0.04903325,9.80665,0.0034557519189487725,-0.01001818990644745,0.00307177948351002
104059.5975,0.18632634999999997,-0.0784532,9.855683249999998,-0.0018675022996339325,-0.003193952531149623,-0.001780235837034216
104059.6105,0.28439285,-0.0196133,9.826263299999999,-0.007225663103256524,0.006719517620178169,-0.004171336912266448
104059.6204,0.26477955,-0.02941995,9.855683249999998,0.007225663103256524,0.0062482787221397,-0.0029321531433504737
104059.6305,0.35303939999999995,-0.04903325,9.79684335,0.0002443460952792061,-0.0028448866807507574,0.0013962634015954637
104059.6404,0.20593965,-0.0392266,9.7870367,0.002495820830351891,-0.00301941960595019,-0.0021991148575128553
104059.6502,0.28439285,-0.0196133,9.80665,0.0002617993877991494,0.006841690667817772,-0.0042935099599060505
104059.6606,0.26477955,-0.04903325,9.7281968,0.008360127117052838,-0.004049163864626845,0.0004363323129985824
104059.6701,0.36284605,-0.0392266,9.738003449999999,-0.002827433388230814,-0.007033676885537149,0.007330382858376184
104059.6812,0.24516625,-0.10787314999999999,9.79684335,-0.0016755160819145565,0.0057421332390613445,-0.0017453292519943296
104059.6923,0.25497289999999995,-0.0392266,9.826263299999999,-0.0058468529941810045,0.0005061454830783556,0.002373647782712288
104059.7026,0.28439285,-0.04903325,9.845876599999999,-0.007225663103256524,-0.0026529004630313807,-0.002722713633111154
104059.7151,0.2745862,0.00980665,9.80665,0.005777039824101231,-6.981317007977319e-05,-0.004206243497306334
104059.7244,0.22555294999999997,-0.0,9.80665,0.005480333851262195,-0.0004363323129985824,-0.001762782544514273
104059.7362,0.21574629999999997,-0.0392266,9.845876599999999,0.002373647782712288,0.0004014257279586958,0.0033335788713091696
104059.7461,0.2745862,-0.04903325,9.77723005,-0.0030892327760299633,-0.0008377580409572782,0.004939281783143952
104059.7597,0.26477955,-0.04903325,9.757616749999999,-0.003926990816987242,-0.0064053583548191895,-0.003141592653589793
104059.7672,0.30400615,-0.0,9.7870367,0.011222467090323538,-0.010681415022205296,0.007452555906015787
104059.7776,0.30400615,-0.0980665,9.845876599999999,0.0004537856055185257,0.0014311699866353504,0.0020943951023931952
104059.7895,0.2353596,-0.0,9.845876599999999,-0.008656833089891874,-0.0008726646259971648,-0.0031066860685499066
104059.7997,0.2353596,-0.06864655,9.836069949999999,0.0019373154697137059,-0.007504915783575617,-0.0037699111843077517
104059.8104,0.196133,-0.0196133,9.81645665,-0.009965830028887622,0.0002617993877991494,0.002530727415391778
104059.8210,0.21574629999999997,-0.0196133,9.80665,-0.005044001538263612,-0.005288347633542819,0.0009075712110370514
104059.8341,-0.04903325,-0.1176798,9.77723005,0.003612831551628262,0.007819075048934596,-0.0073129295658562405
104059.8443,-0.6864655000000001,-0.0980665,9.81645665,0.0013788101090755204,0.004572762640225144,0.0004188790204786391
104059.8552,-1.0983448,0.04903325,9.71839015,0.0012740903539558606,-0.009337511498169663,0.010454522219446033
104059.8652,-0.8924051499999999,-0.0196133,9.77723005,0.0015707963267948964,0.003612831551628262,-0.0077492618788548235
104059.8762,-0.37265269999999995,-0.08825984999999999,9.953749749999998,-0.0020420352248333657,-0.005393067388662479,0.0003839724354387525
104059.8870,0.21574629999999997,-0.06864655,9.826263299999999,-0.00301941960595019,-0.0048520153205442364,0.005044001538263612
104059.8980,0.4707192,-0.10787314999999999,9.7870367,-0.004607669225265031,0.0016580627893946131,-0.007347836150896127
104059.9080,0.10787314999999999,-0.0980665,9.7281968,0.008447393579652554,0.002670353755551324,-0.004677482395344803
104059.9177,-0.2353596,-0.0588399,9.953749749999998,-0.0004363323129985824,0.0010821041362364843,-0.003298672286269283
104059.9278,-0.4118793,0.00980665,9.747810099999999,-0.001710422666954443,-0.005113814708343385,0.0030368728984701333
104059.9386,-0.1372931,-0.04903325,9.81645665,-0.002373647782712288,-0.0060911990894602095,-0.007976154681614086
104059.9484,0.2745862,-0.00980665,9.826263299999999,-0.003543018381548489,-0.008395033702092726,-0.008290313946973065
104059.9586,0.57859235,-0.12748644999999997,9.757616749999999,-0.0038222710618675817,-0.0069638637154573755,-0.0019198621771937625
104059.9685,0.46091255,0.0196133,9.747810099999999,-0.002129301687433082,0.003298672286269283,-0.009302604913129777
104059.9784,0.28439285,-0.04903325,9.757616749999999,0.0018151424220741027,-0.0017453292519943296,-0.004537856055185257
104059.9884,0.0392266,-0.0784532,9.924329799999999,0.004380776422505767,-0.004590215932745087,0.002234021442552742
104059.9981,0.02941995,-0.02941995,9.7674234,0.006946410422937432,-0.0004363323129985824,0.0057421332390613445
104060.0093,0.20593965,0.0196133,9.855683249999998,0.002234021442552742,-0.014137166941154071,-0.0036302848441482054
104060.0194,0.53936575,-0.0,9.747810099999999,-0.0009424777960769379,-0.0024609142453120045,0.0009773843811168245
104060.0294,0.57859235,0.0392266,9.81645665,-0.0015882496193148398,-0.0003665191429188092,0.000767944870877505
104060.0397,0.392266,-0.0,9.738003449999999,-0.00017453292519943296,0.0031764992386296795,-0.006108652381980153
104060.0496,0.22555294999999997,-0.04903325,9.79684335,0.0045029494701453706,-0.003525565089028546,-0.0072954762733362976
104060.0600,0.10787314999999999,-0.0196133,9.7870367,0.0033161255787892262,-0.0033335788713091696,-0.0009250245035569946
104060.0702,0.196133,-0.0196133,9.81645665,-0.002775073510670984,0.008639379797371931,-0.0016057029118347831
104060.0812,0.38245935,-0.00980665,9.826263299999999,-0.0024260076602721182,0.0046251225177849735,-0.0019373154697137059
104060.0930,0.5197524499999999,-0.0196133,9.79684335,0.003141592653589793,-0.0034557519189487725,0.0028099800957108708
104060.1040,0.392266,-0.0392266,9.7870367,-0.002408554367752175,-0.0010471975511965976,-0.008517206749732328
104060.1137,0.2745862,-0.0784532,9.81645665,-0.0030543261909900766,0.004677482395344803,-0.007330382858376184
104060.1237,0.21574629999999997,-0.02941995,9.80665,-0.0013264502315156904,0.009704030641088473,0.0029670597283903604
104060.1334,0.16671305,-0.0784532,9.79684335,-0.002827433388230814,0.0035779249665883754,0.0076270888312152205
104060.1435,0.37265269999999995,-0.0588399,9.7870367,0.002722713633111154,0.009075712110370514,-0.0007504915783575617
104060.1555,0.44129925,-0.1372931,9.81645665,-0.001762782544514273,-0.0002617993877991494,0.003473205211468716
104060.1658,0.44129925,-0.00980665,9.757616749999999,0.002076941809873252,6.981317007977319e-05,-0.0004537856055185257
104060.1767,0.36284605,-0.06864655,9.747810099999999,-0.0025132741228718345,-0.00012217304763960306,0.002007128639793479
104060.1868,0.1569064,-0.0,9.757616749999999,0.004223696789826277,0.0025656340004316645,0.004241150082346221
104060.1983,0.196133,-0.04903325,9.875296549999998,0.0004886921905584122,-0.00445058959258554,0.0021991148575128553
104060.2100,0.26477955,-0.0588399,9.80665,0.0045553093477052,0.002722713633111154,0.0019024088846738192
104060.2196,0.30400615,-0.04903325,9.79684335,0.008831366015091307,-0.0032637657012293962,0.003159045946109736
104060.2304,0.3334261,-0.06864655,9.7281968,-0.00013962634015954637,-0.0017278759594743863,0.0021118483949131386
104060.2403,0.2745862,-0.0784532,9.894909849999998,-0.0005759586531581288,0.0065275314024587925,-0.006457718232379019
104060.2510,0.17651969999999997,-0.00980665,9.81645665,-0.0020594885173533086,-0.005654866776461628,0.004956735075663896
104060.2622,0.21574629999999997,-0.0980665,9.79684335,0.0057421332390613445,-0.006335545184739416,0.001239183768915974
104060.2724,0.24516625,-0.0588399,9.836069949999999,0.006073745796940267,0.003246312408709453,0.004991641660703782
104060.2847,0.28439285,-0.0784532,9.747810099999999,0.0022165681500327986,-0.0030543261909900766,-0.0008552113334772215
104060.2950,0.26477955,-0.00980665,9.826263299999999,0.0028623399732707008,-0.0038222710618675817,-0.003193952531149623
104060.3050,0.25497289999999995,-0.04903325,9.79684335,0.00019198621771937625,-0.0010122909661567112,-0.0009599310885968813
104060.3161,0.16671305,-0.06864655,9.7870367,0.0037524578917878084,0.006649704450098395,-0.0032637657012293962
104060.3267,0.30400615,-0.08825984999999999,9.757616749999999,-0.0005759586531581288,-0.002356194490192345,-0.002007128639793479
104060.3366,0.2745862,-0.0980665,9.79684335,-0.002897246558310587,-0.00010471975511965978,-0.0062482787221397
104060.3468,0.24516625,-0.0392266,9.79684335,0.0014835298641951802,0.0009250245035569946,0.011885692206081384
104060.3573,0.30400615,-0.10787314999999999,9.81645665,0.0029670597283903604,-0.006370451769779303,0.0021118483949131386
104060.3674,0.1569064,-0.0196133,9.7674234,-0.0032114058236695662,-0.006335545184739416,-0.0012740903539558606
104060.3774,0.22555294999999997,-0.0392266,9.81645665,0.006614797865058509,0.004276056667386108,-0.0004886921905584122
104060.3871,0.21574629999999997,-0.0196133,9.80665,-0.0020245819323134223,0.0003665191429188092,0.00937241808320955
104060.3973,0.22555294999999997,-0.04903325,9.826263299999999,0.0008203047484373349,0.0070685834705770355,-0.003560471674068432
104060.4074,0.25497289999999995,-0.0588399,9.7870367,-0.005777039824101231,-0.002286381320112572,-0.002408554367752175
104060.4172,0.2745862,-0.04903325,9.8654899,0.004904375198104067,0.000296705972839036,0.0010995574287564276
104060.4291,0.29419949999999995,0.0196133,9.855683249999998,-0.006003932626860493,0.005794493116621174,0.0006981317007977319
104060.4393,0.25497289999999995,-0.0588399,9.826263299999999,0.0004886921905584122,-0.003996803987067015,-0.0030368728984701333
104060.4491,0.21574629999999997,0.0,9.826263299999999,0.010105456369047167,-0.006003932626860493,0.0014835298641951802
104060.4594,0.24516625,-0.0392266,9.757616749999999,-0.005253441048502932,0.0028099800957108708,0.0020594885173533086
104060.4692,0.26477955,-0.04903325,9.757616749999999,-0.005462880558742251,5.235987755982989e-05,0.0026878070480712674
104060.4805,0.28439285,-0.0,9.747810099999999,-0.001308996938995747,0.004049163864626845,0.005654866776461628
104060.4913,0.2745862,-0.06864655,9.757616749999999,0.008621926504851989,-0.002007128639793479,0.003839724354387525
104060.5019,0.3138128,-0.0784532,9.81645665,0.0024260076602721182,-0.0030543261909900766,0.009878563566287904
104060.5119,0.26477955,-0.04903325,9.738003449999999,-0.0026005405854715507,-0.00019198621771937625,0.00013962634015954637
104060.5217,0.26477955,-0.06864655,9.81645665,-0.003246312408709453,0.0033335788713091696,0.00013962634015954637
104060.5315,0.2745862,-0.08825984999999999,9.747810099999999,-1.7453292519943296e-05,0.0024609142453120045,0.0033161255787892262
104060.5414,0.17651969999999997,-0.02941995,9.81645665,0.000296705972839036,0.0011519173063162576,-0.0015707963267948964
104060.5514,0.30400615,-0.0392266,9.79684335,-0.009512044423369097,0.00020943951023931956,-0.0037699111843077517
104060.5629,0.3138128,-0.0980665,9.80665,-0.0019373154697137059,-0.0038048177693476384,-0.00027925268031909274
104060.5721,0.2353596,-0.08825984999999999,9.8851032,0.0030892327760299633,-0.0058468529941810045,0.0058468529941810045
104060.5824,0.24516625,-0.02941995,9.836069949999999,-0.0015184364492350666,0.003612831551628262,-0.0017453292519943296
104060.5925,0.3334261,0.00980665,9.80665,-0.004537856055185257,-0.003490658503988659,-0.009704030641088473
104060.6034,0.26477955,-0.0392266,9.79684335,0.010122909661567111,-0.002286381320112572,0.0025830872929516074
104060.6133,0.30400615,-0.0784532,9.826263299999999,-0.007086036763096978,-0.003246312408709453,-0.00853466004225227
104060.6231,0.32361945,-0.06864655,9.7870367,-0.0030368728984701333,-0.003926990816987242,-0.0014311699866353504
104060.6332,0.3334261,-0.02941995,9.757616749999999,-0.002478367537831948,-0.0020594885173533086,-0.0018500490071139892
104060.6433,0.25497289999999995,-0.0392266,9.7674234,-0.005689773361501515,3.490658503988659e-05,-0.0041887902047863905
104060.6529,0.24516625,-0.0980665,9.855683249999998,0.00757472895365539,-0.0005410520681182421,0.0021467549799530253
104060.6643,0.196133,-0.0588399,9.7674234,-0.0022689280275926286,-0.0068591439603377154,0.0015184364492350666
104060.6753,0.29419949999999995,-0.00980665,9.80665,0.008203047484373348,0.007871434926494426,-0.001954768762233649
104060.6860,0.30400615,-0.0392266,9.79684335,0.00905825881785057,0.0019024088846738192,0.008412486994612669
104060.6971,0.25497289999999995,0.00980665,9.8851032,0.0014486232791552935,-0.005340707511102648,0.0002443460952792061
104060.7071,0.25497289999999995,0.00980665,9.7674234,0.008307767239493008,0.0020594885173533086,0.0045029494701453706
104060.7181,0.196133,-0.0392266,9.757616749999999,-0.0069638637154573755,0.0013264502315156904,-0.0037524578917878084
104060.7294,0.18632634999999997,-0.00980665,9.757616749999999,-0.0010122909661567112,-0.0051836278784231585,-0.0060911990894602095
104060.7403,0.29419949999999995,-0.0392266,9.7870367,-0.004310963252425994,-0.0021991148575128553,-0.0061959188445798695
104060.7512,0.30400615,-0.08825984999999999,9.757616749999999,0.003490658503988659,3.490658503988659e-05,0.004433136300065597
104060.7624,0.30400615,-0.0588399,9.757616749999999,-0.0026354471705114374,-0.0008028514559173916,-0.003735004599267865
104060.7731,0.25497289999999995,-0.04903325,9.79684335,0.003246312408709453,-0.009005898940290741,-0.00301941960595019
104060.7831,0.3138128,-0.00980665,9.81645665,0.00783652834145454,0.0017976891295541594,0.0025132741228718345
104060.7939,0.20593965,0.0784532,9.7674234,0.0049741883681838385,0.0020420352248333657,-0.0012915436464758037
104060.8048,0.34323275000000003,-0.0392266,9.875296549999998,-0.0023038346126325153,0.006056292504420323,0.0008552113334772215
104060.8159,0.46091255,-0.0588399,9.77723005,-0.00476474885794452,0.0003316125578789226,-0.003612831551628262
104060.8284,0.53936575,-0.0784532,9.80665,-0.00614355896702004,0.0069638637154573755,0.0009599310885968813
104060.8392,0.5099457999999999,-0.02941995,9.855683249999998,-0.0054105206811824215,0.0024609142453120045,-0.0056374134839416844
104060.8502,0.67665885,0.04903325,9.79684335,-0.0025132741228718345,0.0004188790204786391,0.006649704450098395
104060.8606,1.12776475,0.10787314999999999,9.6889702,-0.0003839724354387525,-0.013613568165555772,3.490658503988659e-05
104060.8707,1.53964405,-0.12748644999999997,9.581097049999999,-0.002007128639793479,-0.006946410422937432,0.0021642082724729686
104060.8805,1.4808041499999998,-0.25497289999999995,9.845876599999999,-0.0076445421237351634,-0.0029146998508305304,-0.0018500490071139892
104060.8904,1.10815145,0.00980665,9.71839015,0.004118977034706617,0.0021467549799530253,0.011728612573401895
104060.9005,0.55897905,0.14709974999999997,9.757616749999999,-0.004747295565424576,0.010681415022205296,0.0003141592653589793
104060.9108,0.00980665,-0.0784532,9.757616749999999,0.0034557519189487725,0.0008552113334772215,0.008325220532012952
104060.9208,0.10787314999999999,0.0588399,9.8654899,0.001954768762233649,0.0052010811709431014,0.0041887902047863905
104060.9317,0.5197524499999999,-0.0784532,9.81645665,-0.0031764992386296795,0.0056374134839416844,-0.004276056667386108
104060.9419,0.6962721499999999,0.00980665,9.7870367,0.010297442586766544,0.0006806784082777885,0.0002443460952792061
104060.9517,0.7158854499999999,-0.0980665,9.747810099999999,-0.002373647782712288,0.009512044423369097,-0.00916297857297023
104060.9616,0.3138128,-0.0196133,9.738003449999999,-0.004590215932745087,0.008936085770210968,0.001117010721276371
104060.9715,-0.0588399,0.04903325,9.8851032,0.005096361415823442,0.0035779249665883754,0.010210176124166827
104060.9814,-0.1176798,-0.06864655,9.855683249999998,-0.0005585053606381855,0.0019722220547535923,0.004590215932745087
104060.9929,0.0588399,-0.04903325,9.826263299999999,0.006178465552059927,-0.0037699111843077517,0.004345869837465881
104061.0023,0.45110589999999995,-0.0784532,9.81645665,0.0031764992386296795,0.0014660765716752368,-0.0020245819323134223
104061.0123,0.53936575,-0.0392266,9.826263299999999,-0.0032288591161895096,-0.0005585053606381855,0.0026354471705114374
104061.0234,0.43149259999999995,-0.06864655,9.80665,0.002670353755551324,-0.00010471975511965978,0.010053096491487338
104061.0346,0.20593965,-0.04903325,9.836069949999999,0.0024260076602721182,0.0016929693744344998,-0.001710422666954443
104061.0460,-0.06864655,-0.0588399,9.826263299999999,-0.0036477381366681488,0.001710422666954443,0.008045967851693859
104061.0572,0.00980665,-0.1176798,9.8851032,0.003839724354387525,0.00614355896702004,-0.000767944870877505
104061.0689,0.24516625,-0.0196133,9.894909849999998,-0.0018151424220741027,0.007539822368615503,-0.0045553093477052
104061.0800,0.3334261,-0.00980665,9.738003449999999,0.0016929693744344998,-0.003839724354387525,0.010559241974565694
104061.0910,0.1372931,0.0,9.826263299999999,-0.0021467549799530253,0.004084070449666731,-0.006684611035138282
104061.1019,0.02941995,-0.0392266,9.875296549999998,0.0004014257279586958,0.0045204027626653135,-0.006597344572538566
104061.1121,-0.02941995,0.02941995,9.875296549999998,0.008412486994612669,0.0003839724354387525,0.0037699111843077517
104061.1228,0.16671305,0.0,9.79684335,-0.0016231562043547264,-0.0009075712110370514,-0.0013264502315156904
104061.1330,0.3334261,-0.0784532,9.77723005,-0.004084070449666731,-0.002234021442552742,-0.001954768762233649
104061.1441,0.29419949999999995,0.0196133,9.826263299999999,0.004153883619746504,0.007033676885537149,0.0030543261909900766
104061.1555,0.37265269999999995,-0.0784532,9.71839015,0.003490658503988659,-0.00757472895365539,0.001413716694115407
104061.1674,0.16671305,-0.02941995,9.79684335,0.002234021442552742,0.0027052603405912107,-0.008203047484373348
104061.1771,0.12748644999999997,0.00980665,9.836069949999999,0.00445058959258554,0.0016406094968746698,0.0029321531433504737
104061.1871,0.14709974999999997,-0.0392266,9.80665,0.0037175513067479217,-0.0029321531433504737,0.0041887902047863905
104061.1982,0.3334261,-0.02941995,9.757616749999999,-0.001710422666954443,-0.0004363323129985824,-0.000767944870877505
104061.2096,0.35303939999999995,-0.0392266,9.836069949999999,0.004904375198104067,-0.00017453292519943296,0.009407324668249437
104061.2187,0.32361945,-0.0392266,9.7870367,0.007120943348136864,-0.005881759579220891,-0.0033335788713091696
104061.2291,0.24516625,-0.0,9.77723005,0.000296705972839036,-0.0015533430342749533,0.0015707963267948964
104061.2401,0.17651969999999997,-0.00980665,9.77723005,0.007330382858376184,-0.0066322511575784525,-0.0016231562043547264
104061.2511,0.25497289999999995,-0.0196133,9.738003449999999,-0.003543018381548489,0.000767944870877505,0.0016929693744344998
104061.2608,0.29419949999999995,-0.0,9.77723005,0.0008203047484373349,-0.0026354471705114374,-0.003735004599267865
104061.2719,0.36284605,-0.0784532,9.77723005,0.0023387411976724015,0.0012740903539558606,0.01007054978400728
104061.2831,0.30400615,0.0196133,9.826263299999999,-0.003543018381548489,0.004747295565424576,0.0005410520681182421
104061.2940,0.24516625,-0.06864655,9.71839015,-0.001308996938995747,0.001064650843716541,-0.0026529004630313807
104061.3051,0.21574629999999997,-0.0784532,9.836069949999999,0.00019198621771937625,-0.008115781021773632,0.0018849555921538759
104061.3150,0.2745862,-0.10787314999999999,9.7870367,-1.7453292519943296e-05,0.0005585053606381855,0.0008377580409572782
104061.3248,0.3334261,-0.0784532,9.7674234,-0.011955505376161158,0.0035779249665883754,-0.003159045946109736
104061.3347,0.32361945,-0.10787314999999999,9.757616749999999,-0.01069886831472524,-0.002949606435870417,-0.0055152404363020815
104061.3447,0.32361945,-0.08825984999999999,9.7870367,0.0026529004630313807,-0.0026529004630313807,0.0035953782591083188
104061.3542,0.24516625,-0.0784532,9.81645665,0.00020943951023931956,-0.004223696789826277,0.008674286382411817
104061.3642,0.29419949999999995,0.00980665,9.80665,-0.0026878070480712674,0.005899212871740834,-0.005811946409141118
104061.3742,0.22555294999999997,-0.00980665,9.7674234,-0.005550147021341968,-0.0038048177693476384,0.00952949771588904
104061.3851,0.2745862,0.0588399,9.81645665,-0.006614797865058509,0.0005759586531581288,-0.0004188790204786391
104061.3965,0.30400615,-0.0784532,9.7674234,0.009285151620609835,-0.003193952531149623,0.0007155849933176752
104061.4074,0.29419949999999995,-0.02941995,9.836069949999999,0.0012042771838760874,0.0012042771838760874,0.0014835298641951802
104061.4172,0.2745862,-0.0980665,9.80665,-0.0013962634015954637,0.002722713633111154,-0.0012740903539558606
104061.4273,0.26477955,-0.00980665,9.80665,-0.005235987755982988,-0.0025132741228718345,0.0009424777960769379
104061.4382,0.24516625,-0.00980665,9.8654899,-0.005969026041820607,0.007138396640656807,-0.0022165681500327986
104061.4491,0.28439285,-0.0392266,9.77723005,-0.008115781021773632,-0.005462880558742251,0.005811946409141118
104061.4603,0.2353596,-0.10787314999999999,9.7870367,-0.01017526953912694,0.0023911010752322315,-0.005061454830783556
104061.4702,0.20593965,-0.0784532,9.836069949999999,0.004904375198104067,0.001361356816555577,0.0019024088846738192
104061.4803,0.25497289999999995,-0.02941995,9.81645665,0.011205013797803596,-0.00012217304763960306,0.00020943951023931956
104061.4903,0.2353596,-0.02941995,9.80665,0.010122909661567111,0.002827433388230814,-0.003926990816987242
104061.5001,0.26477955,-0.02941995,9.80665,0.006614797865058509,0.0035953782591083188,0.0012915436464758037
104061.5111,0.26477955,-0.02941995,9.826263299999999,0.0009599310885968813,0.0002443460952792061,0.00307177948351002
104061.5218,0.24516625,-0.02941995,9.77723005,0.003298672286269283,0.004921828490624009,0.0033859387488689996
104061.5334,0.29419949999999995,0.02941995,9.826263299999999,0.006161012259539983,0.0017976891295541594,-0.0003316125578789226
104061.5429,0.21574629999999997,-0.0588399,9.7870367,0.0027401669256310974,-0.008377580409572781,0.013631021458075715
104061.5528,0.30400615,-0.0196133,9.81645665,0.0006283185307179586,-0.001954768762233649,0.002617993877991494
104061.5629,0.29419949999999995,-0.0784532,9.7870367,0.0013264502315156904,0.0015533430342749533,-0.005969026041820607
104061.5726,0.35303939999999995,-0.04903325,9.7674234,-0.002286381320112572,0.00736528944341607,-0.0009599310885968813
104061.5834,0.29419949999999995,-0.02941995,9.845876599999999,-0.0005759586531581288,0.005270894341022875,0.005288347633542819
104061.5934,0.35303939999999995,-0.0784532,9.7870367,0.002722713633111154,0.007714355293814937,0.0
104061.6039,0.3334261,-0.06864655,9.81645665,0.0002617993877991494,-0.0009773843811168245,-0.0029845130209103037
104061.6138,0.24516625,-0.0,9.81645665,0.0006806784082777885,-0.00603883921190038,0.01174606586592184
104061.6243,0.2745862,0.00980665,9.81645665,0.008377580409572781,0.009075712110370514,-0.0004014257279586958
104061.6341,0.196133,0.00980665,9.7870367,0.00034906585039886593,0.001186823891356144,0.004241150082346221
104061.6452,0.34323275000000003,-0.02941995,9.79684335,0.004904375198104067,-0.003979350694547071,-0.0008726646259971648
104061.6550,0.32361945,0.0,9.826263299999999,0.001413716694115407,-0.0029146998508305304,0.00773180858633488
104061.6651,0.26477955,-0.08825984999999999,9.826263299999999,-0.0004188790204786391,-0.00013962634015954637,0.0012566370614359172
104061.6747,0.196133,-0.02941995,9.81645665,0.001413716694115407,0.003909537524467298,0.0016929693744344998
104061.6842,0.2745862,-0.02941995,9.826263299999999,0.006841690667817772,0.004363323129985824,0.0037000980142279784
104061.6952,0.26477955,-0.08825984999999999,9.747810099999999,-0.0026529004630313807,0.0016231562043547264,0.0027401669256310974
104061.7061,0.32361945,0.00980665,9.826263299999999,-0.0012915436464758037,-0.013020156219877699,0.0004537856055185257
104061.7170,0.25497289999999995,-0.0784532,9.81645665,-0.0005061454830783556,0.006981317007977318,0.0016929693744344998
104061.7274,0.26477955,-0.08825984999999999,9.7674234,-0.012060225131280817,0.009337511498169663,-0.0072954762733362976
104061.7368,0.2353596,-0.0588399,9.7674234,0.001710422666954443,-0.0136659280431156,-0.0003839724354387525
104061.7468,0.28439285,-0.0392266,9.7674234,0.0043982297150257105,0.005654866776461628,0.011239920382843483
104061.7572,0.25497289999999995,-0.06864655,9.80665,0.00022689280275926284,-0.0018675022996339325,0.0012566370614359172
104061.7676,0.24516625,-0.0784532,9.757616749999999,-0.004363323129985824,0.0026529004630313807,-0.0009599310885968813
104061.7776,0.26477955,-0.0,9.7281968,-0.009494591130849153,0.0016231562043547264,0.0008377580409572782
104061.7876,0.196133,-0.0196133,9.81645665,-0.0055152404363020815,0.006876597252857658,0.0011693705988362008
104061.7971,0.21574629999999997,-0.00980665,9.79684335,0.001186823891356144,-0.005707226654021458,0.008970992355250854
104061.8083,0.28439285,-0.04903325,9.836069949999999,-0.004677482395344803,0.0003141592653589793,0.0004014257279586958
104061.8183,0.2353596,-0.0,9.79684335,-0.003403392041388943,0.0026529004630313807,-0.0024609142453120045
104061.8296,0.26477955,-0.04903325,9.81645665,0.004276056667386108,-0.004607669225265031,-0.0038746309394274117
104061.8409,0.30400615,-0.02941995,9.77723005,-0.005427973973702365,0.001308996938995747,-0.004049163864626845
104061.8518,0.26477955,-0.14709974999999997,9.7870367,0.005445427266222308,-0.008203047484373348,-0.0023911010752322315
104061.8646,0.32361945,-0.0196133,9.81645665,-0.0023387411976724015,0.0016580627893946131,-0.0015184364492350666
104061.8723,0.30400615,-0.1176798,9.7674234,0.0067369709126981125,-0.0020594885173533086,-0.0029146998508305304
104061.8822,0.21574629999999997,-0.0,9.747810099999999,-0.003193952531149623,-0.0022165681500327986,-0.0002443460952792061
104061.8932,0.26477955,-0.04903325,9.77723005,-0.005218534463463045,-0.0028448866807507574,0.001239183768915974
104061.9040,0.29419949999999995,-0.02941995,9.845876599999999,-0.00747000919853573,0.005497787143782138,-0.001064650843716541
104061.9137,0.29419949999999995,0.0,9.826263299999999,0.012758356832078549,-0.0006108652381980154,0.0067369709126981125
104061.9252,0.25497289999999995,0.00980665,9.875296549999998,0.0004537856055185257,-0.0007155849933176752,-0.0040666171571467884
104061.9350,0.30400615,-0.0588399,9.757616749999999,0.0009599310885968813,-0.0016231562043547264,0.0008203047484373349
104061.9466,0.30400615,-0.0196133,9.79684335,0.003403392041388943,-0.005654866776461628,-0.007155849933176751
104061.9570,0.20593965,-0.06864655,9.81645665,-0.00010471975511965978,0.00047123889803846896,0.0007155849933176752
104061.9679,0.32361945,-0.0588399,9.80665,0.0008552113334772215,-0.004206243497306334,0.003246312408709453
104061.9812,0.30400615,-0.00980665,9.79684335,0.007155849933176751,0.004153883619746504,-0.011152653920243767
104061.9923,0.24516625,-0.0196133,9.81645665,0.003944444109507185,0.003926990816987242,-0.0016057029118347831
104062.0041,0.21574629999999997,-0.04903325,9.7870367,0.0014835298641951802,-0.00445058959258554,0.0003839724354387525
104062.0150,0.21574629999999997,-0.08825984999999999,9.81645665,0.005567600313861911,-0.0072082098107365804,0.005131268000863329
104062.0271,0.18632634999999997,-0.1372931,9.80665,-0.005113814708343385,0.0004188790204786391,0.0034557519189487725
104062.0379,0.22555294999999997,0.0196133,9.77723005,0.0020594885173533086,-0.0013788101090755204,0.0018675022996339325
104062.0488,0.21574629999999997,-0.00980665,9.80665,0.013037609512397642,0.0028623399732707008,-0.0028099800957108708
104062.0589,0.2353596,-0.04903325,9.7674234,-0.0006457718232379018,-0.00027925268031909274,-0.0010995574287564276
104062.0697,0.24516625,-0.0392266,9.77723005,-0.00012217304763960306,-0.0027401669256310974,-0.00853466004225227
104062.0812,0.28439285,-0.06864655,9.757616749999999,-0.001064650843716541,0.0012566370614359172,0.0019722220547535923
104062.0922,0.22555294999999997,-0.0784532,9.7870367,0.004276056667386108,-0.009983283321407565,-0.005811946409141118
104062.1020,0.2353596,0.02941995,9.79684335,-0.0043982297150257105,0.0023212879051524586,-0.0010995574287564276
104062.1124,0.21574629999999997,-0.0196133,9.8654899,-0.005253441048502932,0.008604473212332044,-0.0020420352248333657
104062.1222,0.25497289999999995,-0.04903325,9.77723005,-0.0027925268031909274,-0.005672320068981571,-0.004101523742186674
104062.1323,0.26477955,-0.04903325,9.81645665,0.003839724354387525,0.003403392041388943,0.003979350694547071
104062.1448,0.21574629999999997,-0.0392266,9.7870367,-0.0028797932657906437,0.01101302758008422,-0.003735004599267865
104062.1550,0.2353596,-0.0,9.757616749999999,0.0012740903539558606,-0.0021467549799530253,0.0033161255787892262
104062.1673,0.2745862,-0.02941995,9.79684335,-0.001413716694115407,0.009983283321407565,-0.0013962634015954637
104062.1794,0.2745862,-0.1176798,9.80665,0.006928957130417489,-0.00614355896702004,-0.0030543261909900766
104062.1896,0.22555294999999997,-0.0784532,9.845876599999999,0.0059515727493006645,0.005567600313861911,-0.0033335788713091696
104062.1994,0.20593965,-0.08825984999999999,9.77723005,-0.00013962634015954637,-0.004345869837465881,0.0018500490071139892
104062.2140,0.2745862,0.04903325,9.81645665,-0.0015184364492350666,-0.007278022980816354,-0.003996803987067015
104062.2238,0.25497289999999995,0.00980665,9.79684335,0.00019198621771937625,0.0010995574287564276,0.002495820830351891
104062.2339,0.2745862,-0.0784532,9.855683249999998,0.0011344640137963143,-0.00034906585039886593,-0.0022689280275926286
104062.2462,0.2745862,-0.0588399,9.77723005,-0.000593411945678072,0.00466002910282486,-0.005009094953223725
104062.2572,0.22555294999999997,-0.0784532,9.80665,0.0026354471705114374,0.0028099800957108708,0.00017453292519943296
104062.2675,0.2745862,-0.12748644999999997,9.836069949999999,-0.0013439035240356337,0.0006981317007977319,-0.005550147021341968
104062.2778,0.28439285,-0.06864655,9.747810099999999,0.0027401669256310974,-0.0048345620280242935,0.00013962634015954637
104062.2887,0.30400615,-0.00980665,9.79684335,-0.0032637657012293962,0.0002443460952792061,-0.005672320068981571
104062.2985,0.22555294999999997,-0.02941995,9.855683249999998,-0.003159045946109736,-0.0020594885173533086,-0.008325220532012952
104062.3085,0.29419949999999995,-0.02941995,9.845876599999999,0.010210176124166827,0.0012740903539558606,-0.0003839724354387525
104062.3194,0.34323275000000003,-0.00980665,9.836069949999999,0.002076941809873252,-0.003909537524467298,0.0037524578917878084
104062.3302,0.28439285,0.02941995,9.836069949999999,-0.00015707963267948965,-0.0005759586531581288,0.0006981317007977319
104062.3410,0.25497289999999995,-0.04903325,9.80665,-0.003141592653589793,0.0023387411976724015,-0.0005759586531581288
104062.3576,0.30400615,-0.0392266,9.836069949999999,-0.001117010721276371,0.0022689280275926286,-0.003961897402027128
104062.6723,0.22555294999999997,0.00980665,9.738003449999999,0.0057246799465414016,-0.004572762640225144,0.0005759586531581288
104062.7322,0.29419949999999995,-0.0196133,9.7674234,-0.0022689280275926286,0.0002443460952792061,0.0010122909661567112
104062.7465,0.3138128,-0.02941995,9.7870367,0.006440264939859076,-0.0076270888312152205,-0.0038048177693476384
104062.7912,0.22555294999999997,-0.0588399,9.7870367,-0.0072954762733362976,-0.0019024088846738192,-0.0014311699866353504
104062.8118,0.28439285,-0.02941995,9.7870367,-0.0038746309394274117,-0.0030543261909900766,0.000890117918517108
104062.8706,0.24516625,-0.0196133,9.80665,-0.0048345620280242935,0.0079412480965742,0.0021991148575128553
104062.9023,0.20593965,0.0196133,9.836069949999999,0.00019198621771937625,0.0013439035240356337,-0.002286381320112572
104062.9264,0.26477955,-0.02941995,9.7870367,-0.0016231562043547264,0.005969026041820607,0.0022689280275926286
104063.0103,0.21574629999999997,-0.02941995,9.826263299999999,0.0056374134839416844,-0.002356194490192345,-0.0012566370614359172
104063.0204,0.24516625,-0.02941995,9.77723005,-0.004939281783143952,0.0035081117965086025,-0.0041887902047863905
104063.0329,0.22555294999999997,-0.08825984999999999,9.7870367,0.00466002910282486,-0.0013962634015954637,0.004921828490624009
104063.0441,0.2353596,-0.00980665,9.7870367,-0.00445058959258554,0.00476474885794452,-0.00736528944341607
104063.0551,0.28439285,-0.1176798,9.77723005,-0.0006981317007977319,-0.005689773361501515,-0.00017453292519943296
104063.0661,0.20593965,-0.0392266,9.80665,-5.235987755982989e-05,0.0010297442586766543,-0.0032288591161895096
104063.0770,0.29419949999999995,-0.06864655,9.81645665,-0.0019896753472735357,-0.006335545184739416,-0.006318091892219472
104063.0879,0.25497289999999995,-0.0392266,9.77723005,0.0012217304763960308,-0.0032288591161895096,-0.0010122909661567112
104063.0988,0.26477955,-0.0392266,9.826263299999999,0.0027401669256310974,0.00022689280275926284,-0.0061959188445798695
104063.1087,0.2745862,-0.08825984999999999,9.81645665,0.004223696789826277,-0.013159782560037244,0.0029845130209103037
104063.1186,0.17651969999999997,-0.0,9.7674234,0.0013264502315156904,-0.0006806784082777885,-0.00301941960595019
104063.1285,0.24516625,-0.02941995,9.77723005,-0.0029146998508305304,-0.0010122909661567112,-0.0017453292519943296
104063.1387,0.29419949999999995,-0.06864655,9.7674234,-0.009878563566287904,0.0010995574287564276,-0.0036477381366681488
104063.1495,0.25497289999999995,0.00980665,9.80665,0.004328416544945937,-0.004241150082346221,-0.002617993877991494
104063.1627,0.22555294999999997,0.0196133,9.845876599999999,0.003159045946109736,0.004537856055185257,0.000593411945678072
104063.1768,0.2745862,-0.00980665,9.79684335,0.001239183768915974,-0.004328416544945937,0.005131268000863329
104063.1843,0.25497289999999995,-0.08825984999999999,9.826263299999999,0.0008203047484373349,-0.0003839724354387525,-0.00958185759344887
104063.1953,0.3138128,-0.10787314999999999,9.7870367,0.0076445421237351634,-0.0055152404363020815,-0.001762782544514273
104063.2052,0.26477955,-0.0588399,9.836069949999999,-0.005602506898901798,0.0006632251157578452,0.002076941809873252
104063.2162,0.24516625,-0.0196133,9.77723005,-0.0068591439603377154,0.011187560505283653,-0.0004363323129985824
104063.2271,0.26477955,-0.0980665,9.845876599999999,0.003159045946109736,0.0009773843811168245,0.0009075712110370514
104063.2369,0.2353596,-0.02941995,9.836069949999999,-0.0012042771838760874,-0.0030892327760299633,0.009389871375729494
104063.2477,0.30400615,-0.04903325,9.7281968,0.009180431865490174,-0.00022689280275926284,0.0064228116473391324
104063.2589,0.2745862,-0.0196133,9.81645665,-0.0005585053606381855,0.004136430327226561,-0.0040666171571467884
104063.2703,0.25497289999999995,-0.04903325,9.7674234,0.007766715171374766,0.005044001538263612,0.007801621756414653
104063.2806,0.28439285,-0.0392266,9.77723005,-0.006440264939859076,-0.0031066860685499066,0.0012217304763960308
104063.2907,0.21574629999999997,-0.02941995,9.81645665,0.0004886921905584122,0.006213372137099813,0.002076941809873252
104063.3004,0.3138128,-0.10787314999999999,9.77723005,0.0018849555921538759,0.003351032163829113,0.0064228116473391324
104063.3104,0.26477955,-0.02941995,9.77723005,-0.0002617993877991494,0.0020420352248333657,-0.005044001538263612
104063.3202,0.196133,-0.0392266,9.875296549999998,0.009773843811168246,-0.0020420352248333657,-0.0014486232791552935
104063.3310,0.24516625,-0.12748644999999997,9.875296549999998,-0.003665191429188092,-0.0009250245035569946,0.0038571776469074684
104063.3422,0.24516625,-0.1176798,9.7870367,0.0006108652381980154,0.0050789081233034985,-0.0022689280275926286
104063.3531,0.28439285,-0.00980665,9.8851032,-0.006440264939859076,0.003682644721708035,-0.002478367537831948
104063.3631,0.29419949999999995,0.0,9.7674234,0.008726646259971648,0.006230825429619756,-0.0036477381366681488
104063.3740,0.2745862,-0.00980665,9.7674234,-0.0076270888312152205,-0.0016929693744344998,-0.0014311699866353504
104063.3850,0.26477955,-0.0392266,9.77723005,-0.0021991148575128553,-0.0019373154697137059,0.005777039824101231
104063.3958,0.22555294999999997,-0.04903325,9.80665,-0.00027925268031909274,-0.001186823891356144,-0.0003839724354387525
104063.4056,0.2745862,-0.00980665,9.81645665,0.006335545184739416,0.0016580627893946131,0.0025830872929516074
104063.4157,0.25497289999999995,-0.08825984999999999,9.826263299999999,0.004310963252425994,0.0045204027626653135,-0.0032288591161895096
104063.4280,0.25497289999999995,0.02941995,9.80665,-0.0057421332390613445,0.006649704450098395,-0.005445427266222308
104063.4388,0.24516625,-0.04903325,9.81645665,-0.003839724354387525,-0.0021467549799530253,-0.00027925268031909274
104063.4486,0.35303939999999995,-0.10787314999999999,9.747810099999999,0.002234021442552742,-0.0010471975511965976,-0.0029321531433504737
104063.4599,0.22555294999999997,-0.02941995,9.747810099999999,-0.00788888821901437,0.006213372137099813,0.0034557519189487725
104063.4709,0.26477955,-0.04903325,9.738003449999999,0.0004188790204786391,-0.006213372137099813,0.0005585053606381855
104063.4816,0.2353596,-0.0588399,9.77723005,0.00013962634015954637,0.0005410520681182421,-0.0066322511575784525
104063.4915,0.24516625,-0.08825984999999999,9.7870367,0.00034906585039886593,0.002722713633111154,0.0045204027626653135
104063.5015,0.22555294999999997,-0.02941995,9.836069949999999,0.004171336912266448,-0.005131268000863329,0.0025830872929516074
104063.5114,0.20593965,-0.14709974999999997,9.77723005,-0.0058468529941810045,0.007609635538695277,0.006126105674500096
104063.5217,0.2745862,-0.04903325,9.81645665,-0.0007155849933176752,0.003979350694547071,-0.000890117918517108
104063.5328,0.24516625,0.0196133,9.7674234,-0.0026354471705114374,0.0012740903539558606,-0.002076941809873252
104063.5426,0.2745862,-0.00980665,9.69877685,0.0009773843811168245,-0.007557275661135447,0.0058468529941810045
104063.5527,0.20593965,0.0,9.836069949999999,0.0024609142453120045,0.002181661564992912,-0.004939281783143952
104063.5643,0.21574629999999997,0.0392266,9.8654899,-0.005113814708343385,-0.0010471975511965976,0.01064650843716541
104063.5741,0.22555294999999997,0.00980665,9.81645665,-0.006597344572538566,-0.0016406094968746698,-0.008552113334772215
104063.5853,0.28439285,-0.0196133,9.79684335,0.0028099800957108708,0.0022514747350726853,0.005986479334340551
104063.5954,0.3138128,-0.0588399,9.826263299999999,0.003543018381548489,0.0026529004630313807,-0.003560471674068432
104063.6064,0.26477955,-0.0392266,9.77723005,-0.003944444109507185,0.0029321531433504737,-0.003351032163829113
104063.6189,0.26477955,-0.10787314999999999,9.81645665,0.001413716694115407,-0.00012217304763960306,-0.0016755160819145565
104063.6263,0.26477955,-0.0196133,9.845876599999999,-0.002775073510670984,0.0002617993877991494,0.0030019663134302466
104063.6377,0.196133,-0.04903325,9.747810099999999,0.002897246558310587,-5.235987755982989e-05,0.0006632251157578452
104063.6487,0.2353596,0.0,9.81645665,-0.0025656340004316645,0.0018849555921538759,-0.004310963252425994
104063.6629,0.30400615,-0.02941995,9.79684335,-0.0003316125578789226,0.0028099800957108708,-0.004101523742186674
104063.6692,0.20593965,0.0196133,9.77723005,0.003420845333908886,-0.003403392041388943,0.007225663103256524
104063.6800,0.2353596,0.0196133,9.747810099999999,-0.0010471975511965976,0.0013788101090755204,-0.0008203047484373349
104063.6913,0.25497289999999995,-0.06864655,9.836069949999999,-0.0019198621771937625,-0.0009250245035569946,-0.004956735075663896
104063.7023,0.30400615,0.02941995,9.7281968,0.00747000919853573,-0.004921828490624009,-0.0005061454830783556
104063.7130,0.25497289999999995,0.00980665,9.7674234,0.0022514747350726853,0.004904375198104067,-0.005462880558742251
104063.7271,0.3138128,-0.0196133,9.8654899,-0.009075712110370514,0.004904375198104067,0.005044001538263612
104063.7374,0.24516625,-0.0588399,9.7085835,0.0069638637154573755,0.00466002910282486,-0.0016580627893946131
104063.7531,0.22555294999999997,-0.04903325,9.81645665,-0.003543018381548489,0.0037524578917878084,-0.014364059743913332
104063.7638,0.30400615,-0.0392266,9.77723005,-0.0041887902047863905,0.004363323129985824,6.981317007977319e-05
104063.7753,0.2353596,-0.0980665,9.77723005,0.01420698011123384,-0.002129301687433082,0.009023352232810684
104063.7853,0.3138128,-0.0392266,9.79684335,-0.0006632251157578452,0.003525565089028546,0.0031066860685499066
104063.7950,0.28439285,-0.02941995,9.80665,0.0017278759594743863,-0.00034906585039886593,-0.0010471975511965976
104063.8052,0.30400615,-0.04903325,9.826263299999999,0.0019373154697137059,0.0010821041362364843,-0.0004014257279586958
104063.8151,0.21574629999999997,0.00980665,9.826263299999999,-0.0007504915783575617,0.001413716694115407,0.003525565089028546
104063.8289,0.25497289999999995,0.04903325,9.845876599999999,-0.004380776422505767,-0.005131268000863329,0.004363323129985824
104063.8414,0.22555294999999997,-0.00980665,9.79684335,0.0022165681500327986,-0.0007155849933176752,-0.0013439035240356337
104063.8523,0.25497289999999995,-0.1372931,9.7870367,0.00757472895365539,0.004118977034706617,0.0009948376736367678
104063.8640,0.24516625,0.04903325,9.826263299999999,0.0028623399732707008,-0.0027576202181510408,0.004153883619746504
104063.8744,0.2353596,-0.04903325,9.79684335,0.0003141592653589793,0.01043706892692609,-0.00047123889803846896
104063.8852,0.2745862,-0.00980665,9.81645665,-0.0022689280275926286,0.008045967851693859,-0.0036477381366681488
104063.8951,0.24516625,-0.06864655,9.79684335,0.0012566370614359172,0.004886921905584123,-0.0037699111843077517
104063.9052,0.2353596,-0.0588399,9.7870367,-0.002181661564992912,0.0014311699866353504,-0.008656833089891874
104063.9149,0.30400615,-0.00980665,9.80665,0.0011344640137963143,-0.003490658503988659,-0.0030368728984701333
104063.9258,0.25497289999999995,-0.0588399,9.836069949999999,-0.001239183768915974,-0.0008028514559173916,-0.0012217304763960308
104063.9390,0.26477955,0.0196133,9.79684335,0.0049741883681838385,-0.007330382858376184,0.006806784082777886
104063.9498,0.25497289999999995,-0.00980665,9.836069949999999,0.006457718232379019,0.0037524578917878084,-0.008429940287132611
104063.9619,0.24516625,-0.00980665,9.7870367,0.0009075712110370514,0.0005759586531581288,0.0002617993877991494
