t_mono,ax,ay,az,gx,gy,gz
104742.2809,0.28439285,0.0196133,9.79684335,-0.0028099800957108708,-0.0023387411976724015,-0.0026005405854715507
104742.2816,0.25497289999999995,-0.06864655,9.845876599999999,-0.0027925268031909274,-0.005358160803622592,0.00015707963267948965
104742.2821,0.3138128,-0.0392266,9.81645665,-0.005899212871740834,0.0022165681500327986,-0.00047123889803846896
104742.2825,0.3138128,-0.0196133,9.80665,-0.0006283185307179586,0.0006108652381980154,0.003438298626428829
104742.2828,0.2353596,-0.0588399,9.81645665,-0.0060911990894602095,0.0019198621771937625,-0.0017453292519943296
104742.2906,0.32361945,-0.0392266,9.81645665,0.004485496177625427,-0.0007853981633974482,-0.00027925268031909274
104742.3008,0.25497289999999995,0.0,9.81645665,0.008220500776893291,-0.0010821041362364843,0.00047123889803846896
104742.3114,0.21574629999999997,-0.06864655,9.826263299999999,0.002897246558310587,-0.0019373154697137059,0.008325220532012952
104742.3222,0.3138128,-0.06864655,9.80665,0.0067369709126981125,0.004939281783143952,-0.0005759586531581288
104742.3324,0.26477955,-0.0588399,9.7870367,0.004171336912266448,-0.0037175513067479217,0.006824237375297829
104742.3426,0.29419949999999995,0.0,9.77723005,0.003839724354387525,-0.004433136300065597,0.0005759586531581288
104742.3554,0.2353596,-0.0196133,9.81645665,0.0004363323129985824,0.01174606586592184,-0.0024609142453120045
104742.3642,0.2745862,-0.1176798,9.77723005,-0.003420845333908886,-0.0006108652381980154,-0.0042935099599060505
104742.3756,0.30400615,-0.0196133,9.8654899,-0.005881759579220891,0.001710422666954443,-0.008848819307611252
104742.3861,0.2353596,-0.0392266,9.81645665,-0.010035643198967395,0.00047123889803846896,-0.00799360797413403
104742.3957,0.35303939999999995,-0.08825984999999999,9.826263299999999,0.0033161255787892262,0.0012566370614359172,0.004485496177625427
104742.4057,0.24516625,-0.0588399,9.826263299999999,-0.003193952531149623,0.003560471674068432,0.002478367537831948
104742.4157,0.28439285,-0.0588399,9.81645665,-0.003403392041388943,0.0012217304763960308,0.0040666171571467884
104742.4255,0.2745862,-0.0588399,9.826263299999999,-0.010890854532444616,0.004904375198104067,-0.00767944870877505
104742.4355,0.196133,0.00980665,9.77723005,0.002670353755551324,0.0028448866807507574,-6.981317007977319e-05
104742.4479,0.28439285,-0.02941995,9.855683249999998,0.009494591130849153,0.0010297442586766543,0.0019373154697137059
104742.4557,0.24516625,-0.00980665,9.836069949999999,0.0037524578917878084,0.00809832772925369,-0.0043982297150257105
104742.4670,0.3138128,-0.0392266,9.79684335,-0.0009424777960769379,0.00926769832808989,0.009285151620609835
104742.4804,0.24516625,-0.0392266,9.8654899,0.0036477381366681488,0.0025132741228718345,-0.0012566370614359172
104742.4893,0.28439285,0.0,9.845876599999999,-0.0006457718232379018,-0.0004886921905584122,-0.0019896753472735357
104742.5004,0.20593965,0.0196133,9.836069949999999,-0.003420845333908886,0.0046251225177849735,-0.0016580627893946131
104742.5103,0.26477955,0.02941995,9.875296549999998,-0.005131268000863329,0.0016580627893946131,-0.009930923443847734
104742.5209,0.30400615,-0.0196133,9.80665,0.009826203688728075,0.0019896753472735357,-0.004310963252425994
104742.5310,0.2353596,-0.02941995,9.836069949999999,-0.007051130178057092,0.0012915436464758037,-0.010978120995044333
104742.5419,0.22555294999999997,-0.04903325,9.836069949999999,0.003403392041388943,-0.0113271868454432,0.003926990816987242
104742.5524,0.392266,-0.06864655,9.7870367,-0.0027576202181510408,0.0013264502315156904,0.005881759579220891
104742.5630,0.29419949999999995,-0.0588399,9.7870367,-0.0009424777960769379,-0.0006108652381980154,0.0002617993877991494
104742.5740,0.25497289999999995,-0.0392266,9.7870367,0.005026548245743669,0.0009424777960769379,-0.0010122909661567112
104742.5852,0.25497289999999995,-0.06864655,9.81645665,-0.003403392041388943,0.0004363323129985824,-0.001117010721276371
104742.5946,0.3138128,-0.0980665,9.845876599999999,-0.0022514747350726853,-0.0002617993877991494,-0.010122909661567111
104742.6066,0.29419949999999995,0.0,9.826263299999999,-0.0007504915783575617,-0.004607669225265031,0.0027925268031909274
104742.6175,0.2745862,-0.0196133,9.79684335,0.007260569688296411,0.004590215932745087,-0.00013962634015954637
104742.6280,0.26477955,-0.0588399,9.80665,0.0006632251157578452,0.005218534463463045,-0.004904375198104067
104742.6387,0.2745862,-0.0196133,9.80665,0.002478367537831948,0.007609635538695277,0.0010471975511965976
104742.6493,0.29419949999999995,-0.0196133,9.80665,0.0022689280275926286,0.002007128639793479,-0.004276056667386108
104742.9829,0.2745862,-0.0,9.7674234,0.0010995574287564276,-0.004136430327226561,-0.0036477381366681488
104742.9835,0.2745862,0.02941995,9.7870367,0.007051130178057092,0.008848819307611252,-0.0024609142453120045
104742.9844,0.3334261,0.0392266,9.855683249999998,-0.0009250245035569946,0.003787364476827695,0.007923794804054257
104742.9849,0.24516625,-0.0196133,9.826263299999999,-0.0004188790204786391,-0.008063421144213804,-0.000593411945678072
104742.9853,0.28439285,0.0196133,9.826263299999999,0.002373647782712288,-0.0016929693744344998,-0.0022689280275926286
104742.9857,0.17651969999999997,-0.00980665,9.79684335,-0.005654866776461628,-0.0005585053606381855,-0.005550147021341968
104742.9860,0.3138128,0.00980665,9.845876599999999,-0.006614797865058509,-0.0014486232791552935,0.0010122909661567112
104742.9864,0.25497289999999995,0.02941995,9.80665,0.008220500776893291,-0.00481710873550435,-0.0018675022996339325
104742.9867,0.28439285,-0.12748644999999997,9.81645665,0.001413716694115407,-3.490658503988659e-05,-0.001308996938995747
104742.9871,0.25497289999999995,-0.0392266,9.79684335,-0.0019198621771937625,0.0024434609527920616,0.0046251225177849735
104742.9874,0.18632634999999997,-0.10787314999999999,9.80665,0.007138396640656807,-0.006178465552059927,0.004276056667386108
104742.9877,0.25497289999999995,-0.0196133,9.8654899,-0.00481710873550435,-0.003944444109507185,-0.002286381320112572
104742.9895,0.25497289999999995,-0.04903325,9.826263299999999,-0.0011693705988362008,-0.003839724354387525,0.0021642082724729686
104742.9904,0.30400615,-0.0784532,9.836069949999999,0.0010471975511965976,0.00710349005561692,0.0020943951023931952
104742.9908,0.24516625,-0.00980665,9.80665,-0.00986111027376796,-0.009616764178488757,-0.00853466004225227
104742.9912,0.2745862,-0.0196133,9.7870367,-0.0010821041362364843,-0.0027052603405912107,-0.002076941809873252
104742.9919,0.26477955,-0.04903325,9.738003449999999,-0.006754424205218055,-0.005218534463463045,0.0003665191429188092
104742.9924,0.3138128,-0.0784532,9.79684335,-0.0012042771838760874,-0.0021118483949131386,0.000593411945678072
104742.9931,0.26477955,-0.00980665,9.81645665,-0.0034557519189487725,-0.0056374134839416844,-0.008656833089891874
104742.9935,0.22555294999999997,-0.06864655,9.79684335,-0.005689773361501515,0.000296705972839036,0.0010122909661567112
104742.9938,0.32361945,-0.0588399,9.77723005,-0.0022689280275926286,-0.008080874436733746,0.002373647782712288
104742.9970,0.3138128,-0.0196133,9.8654899,-0.005777039824101231,0.0048345620280242935,0.005270894341022875
104742.9976,0.20593965,-0.04903325,9.80665,-0.003543018381548489,-0.0005585053606381855,0.0010122909661567112
104742.9996,0.32361945,-0.0588399,9.81645665,-0.010140362954087054,-0.0013439035240356337,-0.003543018381548489
104743.0001,0.29419949999999995,-0.0784532,9.81645665,-0.007906341511534314,-0.003612831551628262,-0.005358160803622592
104743.0005,0.2353596,-0.02941995,9.77723005,-0.0006457718232379018,-0.0015009831567151233,-0.011082840750163993
104743.0008,0.3334261,-0.0392266,9.80665,0.010716321607245184,-0.008936085770210968,0.003298672286269283
104743.0011,0.196133,0.0196133,9.836069949999999,0.003438298626428829,-0.0035953782591083188,-0.0014486232791552935
104743.0014,0.34323275000000003,0.00980665,9.7674234,0.008255407361933179,-0.0004188790204786391,0.010873401239924673
104743.0017,0.21574629999999997,-0.02941995,9.81645665,0.001954768762233649,0.0023038346126325153,0.001239183768915974
104743.0021,0.26477955,-0.0784532,9.77723005,0.0,0.005218534463463045,-0.0027925268031909274
104743.0027,0.26477955,0.02941995,9.80665,-0.006614797865058509,0.005899212871740834,-0.0058468529941810045
104743.0124,0.2353596,-0.0,9.826263299999999,0.004694935687864747,-0.003892084231947355,-0.0006806784082777885
104743.0226,0.28439285,-0.04903325,9.79684335,0.0005585053606381855,0.007120943348136864,0.0024260076602721182
104743.0327,0.2745862,-0.0784532,9.77723005,-0.000296705972839036,0.005934119456780721,-0.0009599310885968813
104743.0427,0.28439285,-0.0784532,9.77723005,-0.0036302848441482054,-0.0019373154697137059,0.0033684854563490563
104743.0534,0.30400615,-0.0,9.81645665,-0.010890854532444616,-0.0015009831567151233,0.007400196028455957
104743.0654,0.2353596,-0.0980665,9.79684335,0.005969026041820607,-0.006318091892219472,0.0002617993877991494
104743.0756,0.196133,-0.02941995,9.81645665,0.005148721293383272,0.003473205211468716,0.005585053606381855
104743.0880,0.24516625,-0.02941995,9.79684335,0.004485496177625427,0.0011519173063162576,-0.0015184364492350666
104743.0975,0.28439285,0.02941995,9.845876599999999,0.002234021442552742,-0.0054105206811824215,-0.0006806784082777885
104743.1087,0.22555294999999997,-0.0588399,9.80665,-0.013351768777756621,0.007225663103256524,-0.002949606435870417
104743.1194,0.2745862,-0.0392266,9.836069949999999,0.0026529004630313807,0.0005235987755982988,0.006667157742618339
104743.1291,0.26477955,-0.00980665,9.80665,-0.0037524578917878084,-0.0025132741228718345,-0.0013962634015954637
104743.1456,0.26477955,-0.0784532,9.77723005,-0.00012217304763960306,-0.0013439035240356337,-3.490658503988659e-05
104743.1504,0.29419949999999995,-0.02941995,9.836069949999999,-0.002478367537831948,0.001239183768915974,8.726646259971648e-05
104743.1609,0.21574629999999997,-0.02941995,9.738003449999999,-0.00013962634015954637,-0.0030892327760299633,0.0014486232791552935
104743.1710,0.26477955,-0.04903325,9.7674234,-0.0012915436464758037,-0.0016929693744344998,0.005794493116621174
104743.1805,0.2745862,-0.02941995,9.836069949999999,0.0009599310885968813,-0.003403392041388943,0.0037699111843077517
104743.1905,0.28439285,-0.0784532,9.855683249999998,-0.003543018381548489,-0.004380776422505767,-0.004694935687864747
104743.2035,0.26477955,-0.04903325,9.79684335,0.008203047484373348,-0.0012566370614359172,-0.0005585053606381855
104743.2167,0.24516625,0.02941995,9.7870367,0.009599310885968814,0.0054105206811824215,0.0022165681500327986
104743.2433,0.25497289999999995,-0.0196133,9.81645665,0.010873401239924673,-0.0016057029118347831,8.726646259971648e-05
104743.2576,0.2745862,-0.0392266,9.836069949999999,-0.0005585053606381855,-0.00767944870877505,0.0029321531433504737
104743.2732,0.28439285,-0.04903325,9.855683249999998,0.009040805525330627,-0.0020420352248333657,-0.008063421144213804
104743.2875,0.25497289999999995,-0.06864655,9.8851032,0.0003316125578789226,-0.002129301687433082,0.0037000980142279784
104743.3060,0.25497289999999995,-0.00980665,9.757616749999999,0.0065100781099388496,-0.0004363323129985824,-0.0028797932657906437
104743.3282,0.24516625,0.02941995,9.7870367,0.0015882496193148398,3.490658503988659e-05,-0.00476474885794452
104743.3393,0.30400615,-0.04903325,9.8654899,0.003193952531149623,0.002408554367752175,0.007435102613495843
104743.3519,0.2745862,0.0,9.7870367,-0.003351032163829113,0.007557275661135447,-0.007155849933176751
104743.3643,0.2353596,-0.06864655,9.738003449999999,0.01202531854624093,0.005340707511102648,0.0004537856055185257
104743.3748,0.25497289999999995,0.02941995,9.81645665,0.0007155849933176752,-0.0007853981633974482,-0.004345869837465881
104743.3856,0.26477955,-0.00980665,9.836069949999999,-0.004101523742186674,-0.0074176493209759005,0.0019024088846738192
104743.3965,0.21574629999999997,-0.02941995,9.836069949999999,0.003909537524467298,-0.009721483933608416,-0.00012217304763960306
104743.4084,0.2353596,-0.0392266,9.77723005,-0.0009948376736367678,0.00022689280275926284,-0.002530727415391778
104743.4194,0.2353596,-0.0980665,9.80665,0.0011519173063162576,-0.0022689280275926286,-0.0014660765716752368
104743.4299,0.29419949999999995,-0.0784532,9.757616749999999,0.0015707963267948964,0.003926990816987242,0.0015184364492350666
104743.4409,0.28439285,0.0392266,9.7870367,0.007435102613495843,0.006649704450098395,-0.0015707963267948964
104743.4521,0.25497289999999995,-0.04903325,9.836069949999999,0.005829399701661061,-0.004694935687864747,0.0052010811709431014
104743.4630,0.26477955,-0.0588399,9.747810099999999,0.0056199601914217415,0.0027052603405912107,-0.003490658503988659
104743.4735,0.21574629999999997,-0.06864655,9.8654899,-0.002076941809873252,0.0029845130209103037,0.001832595714594046
104743.4859,0.2745862,-0.04903325,9.826263299999999,-0.0003665191429188092,0.001413716694115407,-0.006667157742618339
104743.4971,0.24516625,-0.04903325,9.7870367,0.0054105206811824215,-0.006126105674500096,-0.0006457718232379018
104743.5072,0.196133,-0.06864655,9.80665,-0.0016406094968746698,-0.005358160803622592,-0.0035081117965086025
104743.5197,0.21574629999999997,0.0,9.80665,0.005096361415823442,-0.0008028514559173916,0.01017526953912694
104743.5293,0.25497289999999995,-0.08825984999999999,9.7870367,0.001239183768915974,0.0015009831567151233,-0.006789330790257942
104743.5402,0.28439285,-0.04903325,9.7674234,-0.006003932626860493,0.008970992355250854,-0.003141592653589793
104743.5511,0.29419949999999995,-0.0,9.80665,-0.0005585053606381855,0.011885692206081384,-0.007278022980816354
104743.5611,0.25497289999999995,-0.02941995,9.80665,0.007539822368615503,-0.0005759586531581288,0.0023387411976724015
104743.5713,0.2353596,-0.00980665,9.81645665,0.0015707963267948964,-0.0012217304763960308,0.003612831551628262
104743.5816,0.2745862,-0.0392266,9.79684335,0.002827433388230814,-0.005672320068981571,0.00019198621771937625
104743.5913,0.29419949999999995,-0.06864655,9.875296549999998,-0.001239183768915974,0.0027576202181510408,-0.0012566370614359172
104743.6012,0.2745862,-0.02941995,9.77723005,-0.0019722220547535923,0.0012042771838760874,-0.004223696789826277
104743.6115,0.20593965,-0.0196133,9.7870367,0.0056199601914217415,0.0027925268031909274,0.007225663103256524
104743.6214,0.3138128,-0.0196133,9.79684335,0.0016755160819145565,-0.004328416544945937,0.004345869837465881
104743.6342,0.29419949999999995,-0.0588399,9.757616749999999,0.004363323129985824,-0.003787364476827695,0.0011693705988362008
104743.6474,0.24516625,-0.0196133,9.80665,-0.0044156830075456534,0.004572762640225144,-0.0019896753472735357
104743.6554,0.30400615,-0.0392266,9.845876599999999,-0.0020594885173533086,0.005550147021341968,-0.0035953782591083188
104743.6671,0.2745862,-0.0392266,9.7870367,-0.011257373675363426,0.0066322511575784525,-0.0048520153205442364
104743.6766,0.21574629999999997,-0.1176798,9.7281968,-0.002181661564992912,0.004886921905584123,0.0037175513067479217
104743.6885,0.22555294999999997,-0.00980665,9.8851032,0.006579891280018622,-0.002722713633111154,6.981317007977319e-05
104743.6993,0.2745862,-0.04903325,9.80665,0.006265732014659643,0.0023387411976724015,0.004747295565424576
104743.7114,0.2745862,-0.08825984999999999,9.81645665,0.0021991148575128553,0.0005410520681182421,0.009197885158010117
104743.7230,0.25497289999999995,0.00980665,9.7870367,-0.0028099800957108708,-0.0016231562043547264,-0.0027925268031909274
104743.7337,0.30400615,-0.02941995,9.826263299999999,-0.002373647782712288,0.002181661564992912,-0.0012915436464758037
104743.7450,0.29419949999999995,-0.0588399,9.81645665,0.002949606435870417,-0.0008028514559173916,0.00027925268031909274
104743.7567,0.25497289999999995,0.02941995,9.836069949999999,-0.0028099800957108708,-0.0010471975511965976,0.001762782544514273
104743.7677,0.30400615,-0.00980665,9.826263299999999,-0.004118977034706617,-0.002478367537831948,-0.004153883619746504
104743.7796,0.29419949999999995,0.02941995,9.77723005,-0.001762782544514273,0.0009948376736367678,-0.003193952531149623
104743.7903,0.26477955,0.0196133,9.826263299999999,0.005393067388662479,0.0007853981633974482,-0.007330382858376184
104743.8012,0.25497289999999995,-0.1176798,9.7674234,0.003909537524467298,-0.0005235987755982988,0.008569566627292158
104743.8113,0.32361945,-0.0392266,9.79684335,0.001361356816555577,0.0027925268031909274,-0.004363323129985824
104743.8246,0.28439285,0.00980665,9.7870367,-0.003560471674068432,0.00015707963267948965,-0.0015009831567151233
104743.8342,0.26477955,-0.0196133,9.80665,0.007661995416255106,0.001361356816555577,0.005602506898901798
104743.8444,0.32361945,-0.08825984999999999,9.71839015,-0.003159045946109736,-0.008709192967451705,-0.0007853981633974482
104743.8555,0.21574629999999997,-0.12748644999999997,9.738003449999999,0.005009094953223725,0.0061959188445798695,-0.0037000980142279784
104743.8653,0.29419949999999995,-0.00980665,9.7870367,0.005288347633542819,0.0015707963267948964,-0.0006283185307179586
104743.8756,0.3138128,-0.0196133,9.79684335,-0.0026354471705114374,-0.0008203047484373349,-0.0032812189937493396
104743.8856,0.2745862,-0.0980665,9.826263299999999,0.003246312408709453,-0.006492624817418906,-0.0056199601914217415
104743.8954,0.20593965,-0.0588399,9.9047165,0.003996803987067015,-0.0045553093477052,-0.003473205211468716
104743.9055,0.22555294999999997,0.0196133,9.855683249999998,0.003892084231947355,-0.005096361415823442,-0.008342673824532895
104743.9158,0.2745862,-0.02941995,9.79684335,-0.007609635538695277,0.004694935687864747,0.0014486232791552935
104743.9257,0.2745862,-0.0196133,9.7674234,0.011484266478122689,0.002495820830351891,0.0033161255787892262
104743.9416,0.2353596,0.00980665,9.845876599999999,0.0009250245035569946,0.0024434609527920616,0.005777039824101231
104743.9486,0.29419949999999995,-0.00980665,9.7674234,0.0009075712110370514,0.0004014257279586958,-0.003560471674068432
104743.9585,0.30400615,-0.00980665,9.7281968,-0.0006981317007977319,0.0020594885173533086,-0.005026548245743669
104743.9687,0.30400615,-0.0196133,9.77723005,0.0016406094968746698,-0.003473205211468716,-0.01033234917180643
104743.9785,0.2353596,-0.0784532,9.845876599999999,-0.0054105206811824215,0.00301941960595019,0.003159045946109736
104743.9885,0.24516625,-0.0588399,9.79684335,0.0033335788713091696,-0.00799360797413403,0.006614797865058509
104743.9987,0.2745862,-0.06864655,9.8654899,0.0019722220547535923,-0.004642575810304917,-0.00301941960595019
104744.0089,0.26477955,-0.0196133,9.836069949999999,0.0014486232791552935,0.0015184364492350666,-1.7453292519943296e-05
104744.0216,0.2745862,0.0196133,9.80665,-0.008709192967451705,0.001361356816555577,0.0011344640137963143
104744.0320,0.29419949999999995,0.00980665,9.855683249999998,-0.0015533430342749533,0.00937241808320955,-0.001710422666954443
104744.0432,0.22555294999999997,0.0196133,9.738003449999999,0.004223696789826277,0.0022689280275926286,-0.0004537856055185257
104744.0541,0.24516625,-0.02941995,9.7870367,-0.002495820830351891,0.003420845333908886,-0.0012042771838760874
104744.0642,0.21574629999999997,-0.0980665,9.738003449999999,0.008395033702092726,0.0011344640137963143,0.005567600313861911
104744.0748,0.29419949999999995,-0.0196133,9.81645665,0.0003665191429188092,-0.0022165681500327986,-0.00312413936106985
104744.0845,0.26477955,-0.0588399,9.7674234,-0.0008203047484373349,0.003961897402027128,0.0013439035240356337
104744.0955,0.22555294999999997,-0.0392266,9.826263299999999,-0.0023911010752322315,-0.004572762640225144,0.003543018381548489
104744.1060,0.2353596,0.0392266,9.7870367,-0.013404128655316452,0.0009599310885968813,0.0010122909661567112
104744.1180,0.28439285,-0.0588399,9.826263299999999,0.01033234917180643,0.0035779249665883754,0.0012217304763960308
104744.1316,0.25497289999999995,0.00980665,9.826263299999999,0.0034557519189487725,0.004991641660703782,-0.007155849933176751
104744.1414,0.196133,-0.06864655,9.81645665,-0.0016755160819145565,-0.0014486232791552935,-0.010245082709206713
104744.1521,0.196133,0.00980665,9.81645665,-0.0004886921905584122,0.004345869837465881,0.007051130178057092
104744.1622,0.3334261,-0.06864655,9.7674234,-0.0051836278784231585,-0.0038746309394274117,0.002373647782712288
104744.1730,0.28439285,-0.04903325,9.747810099999999,-0.008290313946973065,-0.0028797932657906437,0.00015707963267948965
104744.1836,0.24516625,-0.0784532,9.77723005,-0.00013962634015954637,0.0020943951023931952,0.0017453292519943296
104744.1971,0.26477955,0.0196133,9.875296549999998,0.0016580627893946131,0.003944444109507185,-0.0041887902047863905
104744.2092,0.3138128,-0.0392266,9.7674234,-0.004310963252425994,0.004171336912266448,0.0046251225177849735
104744.2204,0.21574629999999997,-0.0980665,9.79684335,0.0013439035240356337,-0.00013962634015954637,0.002478367537831948
104744.2318,0.30400615,0.0,9.7870367,-0.005480333851262195,0.005166174585903215,0.0044156830075456534
104744.2422,0.2353596,-0.00980665,9.77723005,-0.0033684854563490563,0.0029670597283903604,-0.00905825881785057
104744.2531,0.28439285,-0.0196133,9.845876599999999,-0.010192722831646885,0.0012566370614359172,-0.003438298626428829
104744.2639,0.3138128,-0.0196133,9.738003449999999,-0.006894050545377602,-0.007557275661135447,-0.009285151620609835
104744.2742,0.32361945,-0.06864655,9.845876599999999,-0.0003665191429188092,0.01228711793404008,-0.0076445421237351634
104744.2859,0.2353596,-0.04903325,9.747810099999999,0.0003665191429188092,0.0018849555921538759,-0.00013962634015954637
104744.2953,0.2353596,-0.0196133,9.79684335,-0.005602506898901798,-0.006003932626860493,0.009389871375729494
104744.3054,0.3138128,-0.10787314999999999,9.738003449999999,-0.002181661564992912,-0.000890117918517108,0.010245082709206713
104744.3160,0.28439285,-0.0196133,9.80665,-0.00476474885794452,0.003420845333908886,-0.005218534463463045
104744.3260,0.30400615,-0.00980665,9.836069949999999,-0.0010122909661567112,0.004118977034706617,-0.00926769832808989
104744.3361,0.26477955,-0.04903325,9.757616749999999,-0.006789330790257942,-0.001186823891356144,0.0013264502315156904
104744.3472,0.3138128,-0.0392266,9.80665,0.0042935099599060505,-0.008831366015091307,0.002478367537831948
104744.3582,0.196133,-0.08825984999999999,9.79684335,-0.0009075712110370514,0.0044156830075456534,-0.006702064327658226
104744.3691,0.29419949999999995,-0.0196133,9.7870367,0.002722713633111154,0.003682644721708035,-0.003839724354387525
104744.3799,0.2745862,0.02941995,9.845876599999999,0.009128071987930343,-0.0023911010752322315,-0.005358160803622592
104744.3887,0.28439285,-0.0392266,9.7870367,-0.0006806784082777885,0.0012217304763960308,0.004206243497306334
104744.3987,0.29419949999999995,-0.04903325,9.8851032,0.005899212871740834,-0.0064228116473391324,-0.000593411945678072
104744.4101,0.2353596,-0.0588399,9.80665,-0.0007155849933176752,-0.0013439035240356337,0.004084070449666731
104744.4204,0.25497289999999995,-0.08825984999999999,9.7870367,-0.009040805525330627,-0.009791297103688189,0.007033676885537149
104744.4303,0.196133,-0.0196133,9.826263299999999,-0.0031764992386296795,0.007016223593017205,-0.005864306286700947
104744.4404,0.21574629999999997,-0.0196133,9.80665,0.0016406094968746698,-0.0029845130209103037,-0.005148721293383272
104744.4501,0.29419949999999995,-0.0784532,9.7870367,-0.0007155849933176752,0.0012740903539558606,-0.008412486994612669
104744.4610,0.28439285,-0.0588399,9.757616749999999,0.0057246799465414016,-0.0008552113334772215,-0.01064650843716541
104744.4711,0.28439285,-0.06864655,9.7674234,0.002495820830351891,0.011658799403322121,-0.0035081117965086025
104744.4849,0.35303939999999995,-0.08825984999999999,9.7870367,-0.0005061454830783556,0.007976154681614086,-0.005427973973702365
104744.4949,0.30400615,-0.0588399,9.8654899,0.0054105206811824215,0.002949606435870417,-0.0025656340004316645
104744.5055,0.26477955,-0.0784532,9.81645665,-0.0007853981633974482,0.0016057029118347831,0.005811946409141118
104744.5161,0.3138128,-0.02941995,9.8654899,0.0038048177693476384,-0.0008726646259971648,0.010995574287564275
104744.5263,0.28439285,0.00980665,9.7085835,-0.004782202150464463,-0.005585053606381855,-0.00895353906273091
104744.5362,0.28439285,-0.0784532,9.81645665,0.001762782544514273,0.0045029494701453706,0.004223696789826277
104744.5461,0.24516625,-0.04903325,9.875296549999998,0.004433136300065597,-0.001239183768915974,0.0069638637154573755
104744.5571,0.24516625,-0.06864655,9.7870367,0.0003665191429188092,0.0023038346126325153,0.0045553093477052
104744.5679,0.29419949999999995,-0.0784532,9.80665,0.0016406094968746698,0.0002617993877991494,-0.008395033702092726
104744.5791,0.28439285,-0.02941995,9.79684335,-0.0058468529941810045,-0.002129301687433082,0.00020943951023931956
104744.5899,0.30400615,-0.0392266,9.855683249999998,0.009232791743050004,-0.00973893722612836,0.007155849933176751
104744.6006,0.35303939999999995,0.0196133,9.875296549999998,-0.0052010811709431014,-0.0036477381366681488,-0.0003316125578789226
104744.6104,0.2353596,-0.08825984999999999,9.836069949999999,-0.0045553093477052,-0.0037000980142279784,0.0057246799465414016
104744.6202,0.35303939999999995,-0.00980665,9.79684335,-0.00015707963267948965,0.003560471674068432,0.0018151424220741027
104744.6307,0.26477955,-0.02941995,9.7870367,-0.003682644721708035,-5.235987755982989e-05,0.004886921905584123
104744.6409,0.24516625,-0.0392266,9.81645665,-0.01684242728174528,0.005393067388662479,0.006911503837897545
104744.6503,0.26477955,-0.00980665,9.79684335,-0.007243116395776467,-0.012356931104119853,0.00905825881785057
104744.6610,0.24516625,-0.02941995,9.845876599999999,0.0027052603405912107,-0.0049741883681838385,-0.0007853981633974482
104744.6719,0.2745862,-0.02941995,9.747810099999999,0.005899212871740834,0.0014835298641951802,-0.004677482395344803
104744.6830,0.26477955,-0.0196133,9.81645665,-0.0035081117965086025,0.004747295565424576,0.00986111027376796
104744.6941,0.28439285,-0.0392266,9.81645665,-0.003298672286269283,-0.011222467090323538,-0.0014311699866353504
104744.7044,0.32361945,0.06864655,9.7870367,0.002897246558310587,0.005567600313861911,-0.006370451769779303
104744.7143,0.2353596,-0.04903325,9.81645665,0.0022514747350726853,0.0005235987755982988,-0.005009094953223725
104744.7240,0.29419949999999995,-0.04903325,9.7870367,-0.0019198621771937625,-0.0006283185307179586,-0.006387905062299246
104744.7348,0.2745862,-0.10787314999999999,9.836069949999999,0.0045204027626653135,0.004310963252425994,-0.0029845130209103037
104744.7458,0.24516625,0.0196133,9.80665,0.005044001538263612,-0.0007504915783575617,-0.0004537856055185257
104744.7556,0.18632634999999997,-0.00980665,9.80665,0.0021467549799530253,-0.001308996938995747,0.003682644721708035
104744.7655,0.2745862,-0.00980665,9.894909849999998,0.0020420352248333657,-0.0037699111843077517,0.0018675022996339325
104744.7756,0.29419949999999995,-0.0392266,9.845876599999999,-0.003403392041388943,0.002775073510670984,0.005393067388662479
104744.7871,0.29419949999999995,-0.0392266,9.826263299999999,-0.007696902001294993,6.981317007977319e-05,-0.008395033702092726
104744.7956,0.30400615,-0.08825984999999999,9.7870367,0.0004363323129985824,-0.0016929693744344998,0.003665191429188092
104744.8059,0.26477955,0.0196133,9.80665,-0.0017976891295541594,0.004171336912266448,0.0072954762733362976
104744.8161,0.26477955,0.0,9.80665,0.0018500490071139892,-0.0026529004630313807,-0.0014311699866353504
104744.8252,0.25497289999999995,-0.0,9.747810099999999,0.0015009831567151233,-0.005550147021341968,-0.0026005405854715507
104744.8351,0.2745862,-0.02941995,9.845876599999999,-0.0024609142453120045,0.004310963252425994,-0.001186823891356144
104744.8454,0.24516625,-0.0588399,9.836069949999999,-0.005340707511102648,0.0012566370614359172,8.726646259971648e-05
104744.8554,0.29419949999999995,-0.0196133,9.757616749999999,0.0007504915783575617,-0.002722713633111154,-0.0033161255787892262
104744.8661,0.25497289999999995,-0.04903325,9.81645665,0.0070685834705770355,-0.003298672286269283,0.011728612573401895
104744.8770,0.20593965,-0.0196133,9.77723005,-0.004258603374866164,0.006649704450098395,-0.006789330790257942
104744.8872,0.3138128,-0.0392266,9.81645665,0.0018151424220741027,-0.003996803987067015,0.0010297442586766543
104744.8983,0.22555294999999997,-0.06864655,9.79684335,-0.000296705972839036,-0.0045204027626653135,0.004537856055185257
104744.9092,0.2353596,-0.06864655,9.836069949999999,-0.001361356816555577,0.006335545184739416,0.009756390518648303
104744.9192,0.3138128,0.00980665,9.79684335,-0.0024434609527920616,-0.004118977034706617,-0.0022689280275926286
104744.9294,0.25497289999999995,-0.00980665,9.77723005,0.0029321531433504737,-0.00022689280275926284,0.008883725892651137
104744.9402,0.34323275000000003,-0.04903325,9.7870367,0.005480333851262195,-0.0008552113334772215,0.007487462491055674
104744.9509,0.22555294999999997,-0.02941995,9.7870367,-0.0019024088846738192,-0.0033684854563490563,0.0045204027626653135
104744.9612,0.26477955,-0.0392266,9.7870367,-0.005323254218582705,0.004276056667386108,-0.0005410520681182421
104744.9714,0.24516625,-0.04903325,9.8654899,-0.009704030641088473,0.003490658503988659,-0.0004188790204786391
104744.9814,0.30400615,-0.06864655,9.7870367,-0.002234021442552742,0.0012217304763960308,-0.00020943951023931956
104744.9913,0.28439285,0.0,9.81645665,0.0004537856055185257,0.003961897402027128,0.0013788101090755204
104745.0018,0.30400615,-0.00980665,9.855683249999998,0.0003141592653589793,0.0062482787221397,-0.004223696789826277
104745.0131,0.28439285,-0.02941995,9.80665,0.0013788101090755204,0.0011519173063162576,-0.006998770300497262
104745.0237,0.28439285,0.00980665,9.7870367,0.005044001538263612,-0.004677482395344803,0.0033684854563490563
104745.0338,0.2745862,-0.0588399,9.7674234,-0.0005235987755982988,0.0029146998508305304,0.0016057029118347831
104745.0436,0.25497289999999995,-0.0392266,9.836069949999999,0.00471238898038469,0.0015707963267948964,-0.0009599310885968813
104745.0550,0.26477955,-0.00980665,9.8654899,0.0032114058236695662,0.0022689280275926286,0.0062482787221397
104745.0661,0.25497289999999995,-0.0196133,9.757616749999999,0.0035081117965086025,0.00815068760681352,-0.0136659280431156
104745.0769,0.2353596,-0.04903325,9.757616749999999,0.0012915436464758037,-0.0047298422729046335,0.0023038346126325153
104745.0879,0.2353596,-0.0392266,9.80665,-0.008237954069413234,-0.00736528944341607,-0.00034906585039886593
104745.0991,0.196133,-0.0392266,9.77723005,0.0019198621771937625,0.00013962634015954637,0.0024260076602721182
104745.1099,0.25497289999999995,-0.04903325,9.8654899,0.0008377580409572782,0.0045204027626653135,-0.0016057029118347831
104745.1200,0.29419949999999995,-0.0,9.79684335,0.007801621756414653,-0.005585053606381855,0.0034557519189487725
104745.1359,0.2353596,-0.04903325,9.81645665,-0.0012915436464758037,-0.002548180707911721,0.008779006137531478
104745.1410,0.3334261,-0.04903325,9.79684335,0.0022514747350726853,0.0050789081233034985,-0.010821041362364843
104745.1512,0.26477955,-0.0392266,9.80665,-0.0024434609527920616,0.003438298626428829,0.007958701389094143
104745.1614,0.29419949999999995,0.0392266,9.747810099999999,0.002670353755551324,0.0007504915783575617,0.0071907565182166375
104745.1712,0.20593965,-0.06864655,9.79684335,-0.0022514747350726853,-0.005288347633542819,-0.000890117918517108
104745.1812,0.2745862,-0.02941995,9.79684335,-0.0028797932657906437,0.0029845130209103037,0.0004014257279586958
104745.1912,0.28439285,0.0196133,9.7870367,0.0022514747350726853,-0.0036302848441482054,0.002495820830351891
104745.2015,0.22555294999999997,-0.0392266,9.845876599999999,0.003961897402027128,0.0022514747350726853,-0.005759586531581287
104745.2113,0.26477955,-0.00980665,9.826263299999999,0.005358160803622592,0.01038470904936626,-0.0028797932657906437
104745.2215,0.30400615,-0.0392266,9.7674234,-0.000296705972839036,-0.0014660765716752368,-0.0020594885173533086
104745.2315,0.30400615,-0.0588399,9.80665,0.0029146998508305304,0.001117010721276371,0.009616764178488757
104745.2421,0.21574629999999997,-0.00980665,9.845876599999999,0.003351032163829113,0.004345869837465881,-0.0021467549799530253
104745.2517,0.3334261,-0.0196133,9.7870367,-0.0006108652381980154,0.002722713633111154,0.0011344640137963143
104745.2617,0.30400615,-0.0784532,9.855683249999998,1.7453292519943296e-05,8.726646259971648e-05,-0.0005585053606381855
104745.2724,0.29419949999999995,-0.00980665,9.7674234,-0.007016223593017205,-0.0024434609527920616,0.002827433388230814
104745.2828,0.28439285,0.0196133,9.826263299999999,0.0025830872929516074,0.008377580409572781,-0.014852751934471744
104745.2937,0.2745862,-0.00980665,9.836069949999999,-0.003159045946109736,0.0008028514559173916,0.005602506898901798
104745.3045,0.29419949999999995,-0.0,9.8654899,0.003473205211468716,0.005340707511102648,0.0038048177693476384
104745.3192,0.21574629999999997,-0.02941995,9.77723005,0.008045967851693859,-0.006579891280018622,-0.004206243497306334
104745.3291,0.29419949999999995,-0.02941995,9.8654899,0.0033335788713091696,-0.0003665191429188092,-0.0065100781099388496
104745.3399,0.29419949999999995,-0.0980665,9.875296549999998,0.008255407361933179,0.0014311699866353504,0.002617993877991494
104745.3515,0.26477955,-0.08825984999999999,9.80665,0.001954768762233649,-0.0038746309394274117,0.009180431865490174
104745.3628,0.2745862,-0.06864655,9.80665,0.010681415022205296,-0.003787364476827695,-0.00312413936106985
104745.3742,0.30400615,-0.02941995,9.875296549999998,-0.006824237375297829,-0.0027576202181510408,0.0007155849933176752
104745.3844,0.29419949999999995,-0.0784532,9.826263299999999,-0.004468042885105484,0.0024434609527920616,0.0007155849933176752
104745.3943,0.3334261,-0.0392266,9.80665,0.0004363323129985824,-0.0019198621771937625,0.0023911010752322315
104745.4042,0.2745862,-0.02941995,9.836069949999999,-0.001064650843716541,-0.001710422666954443,0.0064228116473391324
104745.4142,0.3138128,0.0,9.81645665,-0.0036477381366681488,-0.00010471975511965978,-0.00958185759344887
104745.4241,0.29419949999999995,-0.0588399,9.836069949999999,0.0020245819323134223,-0.0006632251157578452,-0.001413716694115407
104745.4340,0.3138128,-0.02941995,9.81645665,-0.007260569688296411,0.0027925268031909274,8.726646259971648e-05
104745.4452,0.25497289999999995,-0.0588399,9.7674234,0.0004363323129985824,0.008761552845011534,-0.0027576202181510408
104745.4553,0.21574629999999997,0.02941995,9.77723005,0.005654866776461628,-0.001832595714594046,-0.0003316125578789226
104745.4656,0.24516625,0.0196133,9.79684335,0.005881759579220891,-0.005881759579220891,0.004642575810304917
104745.4761,0.18632634999999997,-0.06864655,9.7870367,-0.003525565089028546,-0.0028623399732707008,-0.00010471975511965978
104745.4873,0.24516625,-0.04903325,9.7674234,-0.0004363323129985824,-0.004607669225265031,0.0028448866807507574
104745.4952,0.2745862,-0.0588399,9.80665,0.005759586531581287,-0.005445427266222308,-0.001710422666954443
104745.5059,0.26477955,-0.06864655,9.79684335,-0.00874409955249159,0.006056292504420323,0.0040666171571467884
104745.5173,0.26477955,-0.02941995,9.845876599999999,0.0019198621771937625,-0.0036302848441482054,0.003926990816987242
104745.5276,0.29419949999999995,-0.0588399,9.826263299999999,-0.0004188790204786391,-0.00019198621771937625,0.0015009831567151233
104745.5372,0.2745862,-0.0588399,9.855683249999998,-0.006841690667817772,0.0024434609527920616,3.490658503988659e-05
104745.5488,0.26477955,-0.04903325,9.81645665,0.0012915436464758037,-0.0009075712110370514,-0.0004188790204786391
104745.5588,0.25497289999999995,-0.02941995,9.79684335,-0.0017976891295541594,-0.0004363323129985824,0.0027576202181510408
104745.5727,0.29419949999999995,-0.06864655,9.7281968,-0.0005235987755982988,-0.009669124056048587,0.004206243497306334
104745.5835,0.2353596,0.0,9.826263299999999,0.006667157742618339,0.006544984694978736,0.002234021442552742
104745.5955,0.29419949999999995,-0.02941995,9.8654899,-0.0030543261909900766,0.005462880558742251,0.00012217304763960306
104745.6054,0.22555294999999997,-0.00980665,9.855683249999998,-0.0028623399732707008,0.003193952531149623,-0.0016929693744344998
104745.6155,0.24516625,-0.06864655,9.836069949999999,0.006318091892219472,0.0028623399732707008,0.0017976891295541594
104745.6301,0.29419949999999995,-0.0784532,9.79684335,0.007923794804054257,-0.005864306286700947,0.0067369709126981125
104745.6355,0.2353596,-0.00980665,9.81645665,-0.004468042885105484,-0.0032114058236695662,0.006230825429619756
104745.6463,0.21574629999999997,-0.0196133,9.79684335,-0.003420845333908886,-0.0012566370614359172,-0.0028797932657906437
104745.6569,0.2745862,-0.1176798,9.80665,0.0029146998508305304,-0.001710422666954443,-0.0025830872929516074
104745.6669,0.29419949999999995,-0.0392266,9.79684335,-0.0015882496193148398,0.0010297442586766543,-0.006597344572538566
104745.6786,0.2745862,-0.0588399,9.81645665,-6.981317007977319e-05,0.004642575810304917,0.00020943951023931956
104745.6888,0.30400615,-0.0588399,9.826263299999999,-0.009145525280450288,0.0030543261909900766,-0.004049163864626845
104745.6985,0.20593965,-0.0588399,9.81645665,0.005794493116621174,0.005811946409141118,-0.009442231253289324
104745.7085,0.20593965,0.00980665,9.826263299999999,0.003246312408709453,0.009965830028887622,-0.004118977034706617
104745.7186,0.3334261,-0.04903325,9.8654899,-0.0016929693744344998,-0.0021467549799530253,0.004328416544945937
104745.7288,0.24516625,-0.0196133,9.81645665,0.0025830872929516074,-0.0014660765716752368,0.005166174585903215
104745.7385,0.21574629999999997,-0.0,9.7870367,0.002775073510670984,-0.003944444109507185,0.009302604913129777
104745.7484,0.24516625,0.0392266,9.738003449999999,-0.003735004599267865,-0.008290313946973065,0.003473205211468716
104745.7587,0.2353596,-0.0,9.826263299999999,-0.006702064327658226,-0.005759586531581287,-0.0009773843811168245
104745.7687,0.32361945,-0.0588399,9.757616749999999,0.0017278759594743863,-0.0026878070480712674,0.005393067388662479
104745.7788,0.20593965,-0.04903325,9.81645665,0.0064228116473391324,0.0006981317007977319,0.0038048177693476384
104745.7899,0.3138128,0.0196133,9.81645665,0.0027052603405912107,-0.0012217304763960308,0.0018849555921538759
104745.8009,0.29419949999999995,-0.0196133,9.845876599999999,-0.008412486994612669,-0.0008726646259971648,-0.001064650843716541
104745.8107,0.196133,-0.00980665,9.836069949999999,-0.004694935687864747,-0.0008028514559173916,-0.0009599310885968813
104745.8220,0.29419949999999995,-0.0196133,9.80665,-0.003961897402027128,-0.008115781021773632,0.0008203047484373349
104745.8323,0.2353596,-0.06864655,9.826263299999999,-0.001064650843716541,-0.0010297442586766543,0.0057246799465414016
104745.8443,0.25497289999999995,-0.0392266,9.757616749999999,0.009005898940290741,0.0057421332390613445,0.0027576202181510408
104745.8543,0.196133,-0.0784532,9.757616749999999,0.002897246558310587,-0.0014486232791552935,0.0009424777960769379
104745.8662,0.29419949999999995,-0.04903325,9.7674234,-0.004694935687864747,0.0031764992386296795,-0.005288347633542819
104745.8767,0.28439285,-0.08825984999999999,9.80665,0.0017278759594743863,0.002548180707911721,-0.003682644721708035
104745.8876,0.29419949999999995,0.0588399,9.81645665,-0.006702064327658226,-0.0026005405854715507,0.006161012259539983
104745.9003,0.2353596,0.0196133,9.80665,-0.0030019663134302466,0.001239183768915974,-0.0032637657012293962
104745.9098,0.29419949999999995,0.00980665,9.855683249999998,-0.0064053583548191895,-0.0014311699866353504,0.0019373154697137059
104745.9212,0.29419949999999995,0.0392266,9.80665,-0.002234021442552742,0.006440264939859076,-0.007278022980816354
104745.9312,0.32361945,-0.0588399,9.81645665,-0.0053058009260627615,0.009128071987930343,-0.0060911990894602095
104745.9409,0.26477955,0.00980665,9.81645665,-0.00020943951023931956,0.005602506898901798,-0.0011344640137963143
104745.9510,0.196133,-0.0392266,9.81645665,0.005689773361501515,0.005009094953223725,0.00022689280275926284
104745.9620,0.26477955,-0.04903325,9.77723005,-0.004171336912266448,-0.002076941809873252,-8.726646259971648e-05
104745.9777,0.22555294999999997,-0.0588399,9.826263299999999,-0.0016057029118347831,0.0010995574287564276,0.0029845130209103037
104745.9889,0.30400615,-0.1176798,9.7674234,-0.008552113334772215,-0.0016929693744344998,-0.008342673824532895
104746.0034,0.3138128,0.0392266,9.747810099999999,0.004590215932745087,-0.0019373154697137059,-0.0007155849933176752
104746.0102,0.25497289999999995,-0.0392266,9.7870367,-0.0015009831567151233,-0.007278022980816354,-0.0008377580409572782
104746.0215,0.3138128,-0.0588399,9.855683249999998,-0.0025656340004316645,0.004363323129985824,-0.003351032163829113
104746.0320,0.32361945,0.02941995,9.79684335,0.0037175513067479217,0.0013264502315156904,0.004380776422505767
104746.0416,0.4118793,-0.0392266,9.747810099999999,-0.004049163864626845,0.002286381320112572,-0.0006981317007977319
104746.0518,0.5295591,0.0784532,9.79684335,0.0022514747350726853,0.012688543661998775,-0.0009948376736367678
104746.0619,1.0493115499999999,-0.02941995,9.6889702,0.0036302848441482054,-0.0045029494701453706,0.006911503837897545
104746.0717,1.3827376499999997,-0.00980665,9.757616749999999,-0.0028797932657906437,-0.0015882496193148398,-0.0020943951023931952
104746.0814,1.4415775499999999,-0.18632634999999997,9.6889702,0.002775073510670984,-0.004310963252425994,-0.00445058959258554
104746.0914,0.9218251,0.02941995,9.826263299999999,0.0021467549799530253,0.005061454830783556,0.009250245035569947
104746.1012,0.392266,-0.0196133,9.8654899,0.005445427266222308,0.0023038346126325153,0.005009094953223725
104746.1113,0.08825984999999999,-0.08825984999999999,9.81645665,0.003193952531149623,0.003525565089028546,0.001710422666954443
104746.1215,0.14709974999999997,-0.06864655,9.757616749999999,-0.0012915436464758037,0.0026005405854715507,0.00986111027376796
104746.1324,0.45110589999999995,-0.00980665,9.8654899,-0.0033161255787892262,0.0041887902047863905,0.008168140899333463
104746.1421,0.83356525,-0.18632634999999997,9.77723005,-0.010157816246606997,0.002286381320112572,-0.0011693705988362008
104746.1526,0.6864655000000001,-0.22555294999999997,9.79684335,-0.004276056667386108,-0.0007504915783575617,-0.0
104746.1621,0.5099457999999999,-0.0196133,9.757616749999999,-0.0014835298641951802,0.005148721293383272,0.0035081117965086025
104746.1734,0.16671305,0.0588399,9.79684335,0.00952949771588904,-0.00445058959258554,-0.0019373154697137059
104746.1867,0.00980665,-0.10787314999999999,9.845876599999999,-0.00788888821901437,0.0012915436464758037,0.0013788101090755204
104746.1942,0.17651969999999997,-0.0196133,9.80665,-0.006824237375297829,0.004223696789826277,-0.0015707963267948964
104746.2048,0.48052585,-0.12748644999999997,9.8654899,-0.002007128639793479,0.01059414855960558,0.0008726646259971648
104746.2171,0.6080123,-0.0392266,9.79684335,-0.00017453292519943296,0.0016057029118347831,-0.009005898940290741
104746.2270,0.4118793,-0.02941995,9.77723005,0.0023038346126325153,-0.004939281783143952,0.0026354471705114374
104746.2371,0.20593965,-0.00980665,9.826263299999999,-0.0016580627893946131,-0.004642575810304917,0.0056199601914217415
104746.2481,0.00980665,-0.00980665,9.81645665,-0.0074176493209759005,0.0021642082724729686,0.004049163864626845
104746.2590,0.196133,-0.0392266,9.826263299999999,-0.00710349005561692,-0.0060911990894602095,0.0022165681500327986
104746.2701,0.3138128,0.0392266,9.80665,0.003560471674068432,0.0026878070480712674,-0.005829399701661061
104746.2831,0.45110589999999995,-0.00980665,9.7870367,-0.0002617993877991494,-0.003892084231947355,0.0008552113334772215
104746.2903,0.34323275000000003,-0.04903325,9.757616749999999,0.005829399701661061,0.008360127117052838,-0.003682644721708035
104746.3008,0.2353596,0.0,9.81645665,-0.0028099800957108708,0.0028099800957108708,0.0020420352248333657
104746.3102,0.0980665,-0.0196133,9.79684335,-0.00614355896702004,0.0038571776469074684,0.0024609142453120045
104746.3201,0.16671305,0.00980665,9.757616749999999,-0.008813912722571364,0.008517206749732328,-0.001117010721276371
104746.3312,0.26477955,0.0196133,9.747810099999999,-0.011362093430483085,0.002548180707911721,0.0027925268031909274
104746.3414,0.32361945,-0.0588399,9.7870367,-0.00710349005561692,0.0030892327760299633,0.0010995574287564276
104746.3509,0.29419949999999995,-0.0784532,9.7281968,0.003926990816987242,-0.0004188790204786391,0.0007504915783575617
104746.3609,0.26477955,-0.0588399,9.7674234,-0.008831366015091307,1.7453292519943296e-05,0.0027576202181510408
104746.3749,0.17651969999999997,-0.0196133,9.7674234,-0.004223696789826277,0.006806784082777886,-0.0051836278784231585
104746.3823,0.1176798,0.0392266,9.80665,0.0033859387488689996,0.0018849555921538759,-0.00010471975511965978
104746.3921,0.24516625,-0.00980665,9.79684335,0.0037000980142279784,0.001239183768915974,-0.008272860654453122
104746.4023,0.25497289999999995,0.0196133,9.757616749999999,-0.0029146998508305304,-0.0017278759594743863,-0.00307177948351002
104746.4125,0.3138128,0.0,9.855683249999998,-0.005253441048502932,0.0037000980142279784,-0.0015533430342749533
104746.4237,0.30400615,-0.0588399,9.855683249999998,0.0021118483949131386,0.007033676885537149,-0.0014486232791552935
104746.4341,0.29419949999999995,0.0392266,9.836069949999999,0.0003839724354387525,0.0009250245035569946,-0.0022165681500327986
104746.4442,0.2353596,-0.0,9.80665,0.0026354471705114374,-0.0003665191429188092,0.006283185307179586
104746.4542,0.20593965,0.02941995,9.80665,0.0012566370614359172,0.0013788101090755204,0.003839724354387525
104746.4651,0.28439285,-0.00980665,9.747810099999999,0.005096361415823442,-0.004276056667386108,-0.0024434609527920616
104746.4763,0.3138128,-0.0784532,9.7870367,-0.003979350694547071,-0.004956735075663896,0.0029670597283903604
104746.4879,0.22555294999999997,-0.0196133,9.757616749999999,0.0003839724354387525,-0.003193952531149623,0.0013788101090755204
104746.5017,0.24516625,-0.0392266,9.80665,0.0022165681500327986,-0.005113814708343385,0.004241150082346221
104746.5109,0.22555294999999997,-0.00980665,9.79684335,0.0009424777960769379,-3.490658503988659e-05,0.002548180707911721
104746.5220,0.14709974999999997,-0.0588399,9.80665,-0.0015184364492350666,0.008656833089891874,-0.007400196028455957
104746.5332,0.22555294999999997,-0.1372931,9.81645665,0.0009424777960769379,-0.0008028514559173916,0.004991641660703782
104746.5424,0.35303939999999995,-0.0980665,9.79684335,0.0008203047484373349,0.00027925268031909274,-0.0072954762733362976
104746.5535,0.21574629999999997,-0.0588399,9.826263299999999,-0.01069886831472524,0.009005898940290741,0.001308996938995747
104746.5627,0.20593965,-0.08825984999999999,9.855683249999998,-0.007609635538695277,0.003246312408709453,-0.010786134777324957
104746.5764,0.21574629999999997,0.0,9.836069949999999,-0.0033161255787892262,-0.0011519173063162576,0.004031710572106902
104746.5843,0.26477955,-0.00980665,9.8654899,-0.00481710873550435,0.0050789081233034985,-0.0014660765716752368
104746.5952,0.25497289999999995,-0.02941995,9.79684335,-0.003543018381548489,0.00445058959258554,-0.007609635538695277
104746.6053,0.22555294999999997,-0.06864655,9.7870367,0.00736528944341607,-0.002949606435870417,0.0026354471705114374
104746.6159,0.3138128,-0.02941995,9.81645665,0.0015009831567151233,0.0036477381366681488,0.00466002910282486
104746.6271,0.30400615,-0.0392266,9.7674234,-0.003979350694547071,-0.0016755160819145565,0.0018849555921538759
104746.6377,0.22555294999999997,-0.00980665,9.77723005,0.010681415022205296,0.007225663103256524,0.006335545184739416
104746.6495,0.20593965,-0.02941995,9.845876599999999,-0.0015184364492350666,0.0038222710618675817,-0.009459684545809267
104746.6587,0.34323275000000003,-0.04903325,9.747810099999999,-0.0022514747350726853,0.0074176493209759005,-0.0012740903539558606
104746.6700,0.32361945,-0.0588399,9.747810099999999,0.008674286382411817,-0.0005061454830783556,0.010140362954087054
104746.6800,0.2745862,-0.12748644999999997,9.836069949999999,0.004049163864626845,0.004136430327226561,0.004642575810304917
104746.6909,0.20593965,-0.1176798,9.7870367,0.0033335788713091696,-0.004031710572106902,0.0013264502315156904
104746.7005,0.26477955,-0.06864655,9.79684335,-0.00012217304763960306,-0.0065100781099388496,-0.0030368728984701333
104746.7111,0.22555294999999997,-0.00980665,9.875296549999998,0.0020420352248333657,0.0007853981633974482,-0.000890117918517108
104746.7206,0.2353596,0.00980665,9.747810099999999,-0.0008377580409572782,-0.00968657734856853,0.005340707511102648
104746.7308,0.2745862,-0.02941995,9.836069949999999,0.005445427266222308,6.981317007977319e-05,-0.0033335788713091696
104746.7410,0.20593965,-0.02941995,9.757616749999999,-0.005672320068981571,-0.00466002910282486,-0.0020594885173533086
104746.7506,0.29419949999999995,-0.02941995,9.7870367,-0.0009773843811168245,-0.0003141592653589793,0.000593411945678072
104746.7614,0.30400615,-0.0392266,9.7870367,0.0020594885173533086,-0.0018151424220741027,0.003665191429188092
104746.7714,0.2745862,-0.04903325,9.836069949999999,-0.0008726646259971648,-0.005811946409141118,-0.0026005405854715507
104746.7812,0.20593965,0.00980665,9.77723005,0.005881759579220891,0.005585053606381855,-0.005323254218582705
104746.7921,0.21574629999999997,-0.0196133,9.79684335,0.0018151424220741027,-0.0032114058236695662,-0.00015707963267948965
104746.8024,0.28439285,-0.02941995,9.81645665,-0.0008552113334772215,0.012095131716320703,0.0004188790204786391
104746.8126,0.2745862,-0.0,9.7870367,0.005864306286700947,0.0006632251157578452,-0.0017453292519943296
104746.8226,0.3138128,0.0,9.855683249999998,-0.0064228116473391324,0.007801621756414653,-0.006370451769779303
104746.8339,0.24516625,0.0196133,9.7674234,-0.0024609142453120045,0.0024434609527920616,0.0008203047484373349
104746.8437,0.29419949999999995,-0.02941995,9.836069949999999,0.0029670597283903604,-0.007051130178057092,-0.0008203047484373349
104746.8537,0.20593965,-0.0392266,9.81645665,-0.0015184364492350666,-0.00973893722612836,0.002897246558310587
104746.8635,0.2745862,-0.0196133,9.79684335,-0.0009773843811168245,0.007016223593017205,-0.006161012259539983
104746.8733,0.196133,-0.06864655,9.81645665,-0.0008552113334772215,-0.004084070449666731,0.0018675022996339325
104746.8836,0.32361945,-0.0588399,9.80665,-0.00012217304763960306,0.001954768762233649,-0.004904375198104067
104746.8947,0.29419949999999995,-0.08825984999999999,9.80665,0.0028099800957108708,0.0004537856055185257,0.004101523742186674
104746.9059,0.25497289999999995,-0.02941995,9.80665,0.0067369709126981125,-0.007330382858376184,0.006719517620178169
104746.9154,0.22555294999999997,-0.02941995,9.77723005,0.002356194490192345,0.006056292504420323,-0.007976154681614086
104746.9251,0.25497289999999995,-0.06864655,9.757616749999999,0.0030892327760299633,-0.0024260076602721182,0.003543018381548489
104746.9353,0.26477955,-0.0588399,9.757616749999999,0.0035081117965086025,-0.0009599310885968813,0.0002617993877991494
104746.9452,0.29419949999999995,-0.0392266,9.7674234,-0.0036477381366681488,0.003351032163829113,0.002286381320112572
104746.9560,0.30400615,-0.0784532,9.7674234,-0.013613568165555772,0.0033684854563490563,-0.014433872913993104
104746.9659,0.24516625,-0.0196133,9.845876599999999,0.0023387411976724015,-0.00466002910282486,0.00778416846389471
104746.9755,0.2353596,-0.0,9.8654899,6.981317007977319e-05,0.0028448866807507574,-0.0012915436464758037
104746.9854,0.34323275000000003,-0.0588399,9.81645665,-0.0029146998508305304,0.000767944870877505,0.0008203047484373349
104746.9959,0.24516625,0.0,9.77723005,-0.011658799403322121,0.002007128639793479,-0.001832595714594046
104747.0070,0.25497289999999995,0.0,9.855683249999998,-0.008255407361933179,0.016441001553786583,-0.0022165681500327986
104747.0180,0.22555294999999997,-0.0392266,9.80665,-0.001413716694115407,0.0002617993877991494,0.003246312408709453
104747.0299,0.0980665,-0.0196133,9.826263299999999,-0.009546951008408983,-0.002530727415391778,0.0044156830075456534
104747.0389,0.0588399,0.02941995,9.836069949999999,0.003682644721708035,-0.009197885158010117,-0.002495820830351891
104747.0503,0.02941995,0.0196133,9.81645665,0.00019198621771937625,0.001308996938995747,0.0011344640137963143
104747.0612,0.1176798,-0.0196133,9.7870367,0.004241150082346221,-0.0035779249665883754,0.007260569688296411
104747.0720,-0.08825984999999999,-0.0392266,9.7870367,0.006370451769779303,0.004171336912266448,-0.0005759586531581288
104747.0831,-0.6668522,-0.2353596,9.757616749999999,-0.003787364476827695,-0.0021642082724729686,-0.008325220532012952
104747.0939,-0.9512450499999999,0.0588399,9.77723005,0.002530727415391778,0.006928957130417489,0.005166174585903215
104747.1049,-0.93163175,-0.0196133,9.875296549999998,-0.003909537524467298,-0.004118977034706617,0.004921828490624009
104747.1151,-0.24516625,0.0588399,9.914523149999999,0.0010122909661567112,-0.005166174585903215,0.003525565089028546
104747.1257,0.2353596,-0.0392266,9.71839015,0.0067369709126981125,-0.002356194490192345,-0.003892084231947355
104747.1354,0.40207265,-0.0392266,9.7870367,0.008220500776893291,0.0026878070480712674,-0.0046251225177849735
104747.1472,0.14709974999999997,-0.02941995,9.845876599999999,-0.0017976891295541594,0.0003665191429188092,-0.005689773361501515
104747.1567,-0.1176798,0.00980665,9.8851032,-0.0008203047484373349,-0.000593411945678072,0.0040666171571467884
104747.1668,-0.38245935,0.04903325,9.7281968,0.00445058959258554,-0.0053058009260627615,-0.005707226654021458
104747.1774,-0.0,-0.06864655,9.738003449999999,-0.003543018381548489,-0.006126105674500096,-0.003909537524467298
104747.1876,0.36284605,-0.0784532,9.7870367,-0.009616764178488757,-0.004118977034706617,-0.0005061454830783556
104747.2015,0.6472389,-0.10787314999999999,9.81645665,-0.000767944870877505,-0.005235987755982988,0.0005585053606381855
104747.2084,0.53936575,0.0,9.738003449999999,0.0007330382858376184,0.007661995416255106,-0.0045029494701453706
104747.2193,0.12748644999999997,-0.02941995,9.80665,-0.0041887902047863905,0.006318091892219472,-0.005340707511102648
104747.2299,-0.0980665,0.0392266,9.757616749999999,0.0035953782591083188,0.0064228116473391324,-0.0033335788713091696
104747.2408,-0.04903325,-0.02941995,9.8654899,-0.0011693705988362008,-0.003892084231947355,0.0038571776469074684
104747.2517,0.24516625,-0.02941995,9.77723005,-0.008237954069413234,-0.007382742735936014,-0.005375614096142535
104747.2626,0.61781895,-0.0196133,9.77723005,-0.001413716694115407,0.0009948376736367678,-0.005881759579220891
104747.2730,0.7158854499999999,-0.02941995,9.7674234,0.00012217304763960306,-0.0004537856055185257,0.0010122909661567112
104747.2846,0.61781895,-0.0392266,9.81645665,0.002548180707911721,-0.0007504915783575617,-0.0041887902047863905
104747.2943,0.30400615,-0.08825984999999999,9.71839015,0.0007330382858376184,0.0046251225177849735,-0.008621926504851989
104747.3046,0.25497289999999995,0.0,9.855683249999998,0.005445427266222308,0.007714355293814937,-0.001832595714594046
104747.3160,0.35303939999999995,-0.04903325,9.934136449999999,0.000296705972839036,-0.0023911010752322315,0.005777039824101231
104747.3269,0.5295591,0.02941995,9.757616749999999,-0.0048345620280242935,-0.0028797932657906437,-0.002286381320112572
104747.3378,0.5687857,-0.1569064,9.7870367,0.0069638637154573755,0.004485496177625427,0.0070685834705770355
104747.3489,0.5295591,-0.06864655,9.81645665,-0.001710422666954443,-0.0023387411976724015,-0.002181661564992912
104747.3582,0.32361945,0.04903325,9.7870367,-0.0016231562043547264,-0.003560471674068432,5.235987755982989e-05
104747.3687,0.14709974999999997,-0.08825984999999999,9.7674234,0.006387905062299246,0.0006981317007977319,0.0012217304763960308
104747.3794,0.3138128,-0.02941995,9.826263299999999,-0.0003316125578789226,0.006981317007977318,0.002408554367752175
104747.3893,0.40207265,-0.0196133,9.80665,0.00010471975511965978,-0.004991641660703782,0.008726646259971648
104747.3997,0.4216859499999999,-0.0196133,9.81645665,0.0007155849933176752,0.0063006385996995295,-0.0033161255787892262
104747.4101,0.26477955,-0.0,9.757616749999999,-0.00010471975511965978,0.0006806784082777885,-0.0020594885173533086
104747.4211,0.1569064,-0.08825984999999999,9.836069949999999,-0.011135200627723822,-0.0014660765716752368,0.007696902001294993
104747.4311,0.1569064,-0.08825984999999999,9.747810099999999,-0.005253441048502932,0.0006457718232379018,-0.0041887902047863905
104747.4411,0.21574629999999997,-0.0392266,9.7674234,-0.0004363323129985824,-0.0013264502315156904,0.005567600313861911
104747.4521,0.30400615,-0.12748644999999997,9.738003449999999,-0.005044001538263612,-1.7453292519943296e-05,-0.006614797865058509
104747.4618,0.3138128,-0.12748644999999997,9.747810099999999,0.0033161255787892262,-0.002827433388230814,0.002897246558310587
104747.4729,0.29419949999999995,-0.08825984999999999,9.7674234,-0.00747000919853573,0.009302604913129777,-0.0010821041362364843
104747.4840,0.21574629999999997,-0.0196133,9.757616749999999,0.008429940287132611,0.0028797932657906437,-0.0016406094968746698
104747.4940,0.10787314999999999,-0.02941995,9.80665,0.0030892327760299633,-0.00481710873550435,3.490658503988659e-05
104747.5050,0.1372931,-0.0392266,9.7870367,-0.0023387411976724015,0.0019373154697137059,0.0013439035240356337
104747.5153,0.2745862,-0.00980665,9.855683249999998,-0.004921828490624009,0.0048345620280242935,-0.004258603374866164
104747.5251,0.3138128,-0.0196133,9.875296549999998,0.0017976891295541594,-0.003543018381548489,-0.005672320068981571
104747.5352,0.24516625,-0.10787314999999999,9.80665,-0.0003141592653589793,0.0030019663134302466,-0.005113814708343385
104747.5450,0.2353596,-0.0196133,9.77723005,-0.0004188790204786391,0.0053058009260627615,-0.006370451769779303
104747.5550,0.22555294999999997,-0.10787314999999999,9.875296549999998,-0.003420845333908886,-3.490658503988659e-05,-0.0024609142453120045
104747.5661,0.22555294999999997,-0.0392266,9.7674234,-0.0048345620280242935,-0.011833332328521556,-0.00047123889803846896
104747.5774,0.29419949999999995,-0.0784532,9.845876599999999,-0.0007330382858376184,0.003787364476827695,-0.0008552113334772215
104747.5882,0.24516625,-0.0392266,9.80665,0.003525565089028546,-0.006998770300497262,0.003996803987067015
104747.5999,0.32361945,-0.02941995,9.7870367,-0.00022689280275926284,0.0013788101090755204,-0.0035081117965086025
104747.6113,0.30400615,-0.02941995,9.855683249999998,-0.00736528944341607,-0.0038746309394274117,0.006126105674500096
104747.6217,0.17651969999999997,-0.02941995,9.80665,0.00947713783832921,-0.003612831551628262,-0.01541125729510993
104747.6326,0.21574629999999997,-0.0196133,9.855683249999998,0.0005410520681182421,-0.003612831551628262,0.0048520153205442364
104747.6427,0.37265269999999995,-0.0196133,9.81645665,-0.0021467549799530253,-0.00603883921190038,-0.002897246558310587
104747.6563,0.26477955,-0.10787314999999999,9.836069949999999,0.005148721293383272,0.00017453292519943296,0.0014660765716752368
104747.6642,0.36284605,-0.02941995,9.826263299999999,0.004171336912266448,-0.0024609142453120045,0.001239183768915974
104747.6745,0.24516625,-0.04903325,9.855683249999998,0.004136430327226561,-0.00942477796076938,-0.0012217304763960308
104747.6854,0.24516625,-0.06864655,9.855683249999998,-0.0006457718232379018,-0.0032812189937493396,0.006213372137099813
104747.6956,0.2353596,-0.0196133,9.79684335,0.005218534463463045,-0.003665191429188092,-0.00809832772925369
104747.7055,0.24516625,-0.04903325,9.81645665,-0.0042935099599060505,-0.0007504915783575617,-0.005009094953223725
104747.7155,0.28439285,-0.12748644999999997,9.836069949999999,0.00301941960595019,-0.0015184364492350666,0.009616764178488757
104747.7256,0.2745862,-0.04903325,9.80665,-0.004258603374866164,-0.0002617993877991494,-0.0024609142453120045
104747.7360,0.2745862,-0.0196133,9.81645665,0.010157816246606997,-0.001239183768915974,-0.004590215932745087
104747.7470,0.2745862,0.00980665,9.81645665,-0.004276056667386108,0.0014660765716752368,0.0004188790204786391
104747.7621,0.25497289999999995,-0.04903325,9.836069949999999,0.0033161255787892262,-0.000296705972839036,0.0068591439603377154
104747.7674,0.3138128,-0.0196133,9.826263299999999,-0.00010471975511965978,0.002408554367752175,-0.0054105206811824215
104747.7798,0.29419949999999995,-0.0,9.747810099999999,0.003961897402027128,0.003909537524467298,0.0017976891295541594
104747.7897,0.28439285,-0.0196133,9.77723005,-0.003193952531149623,-0.003944444109507185,-0.01117010721276371
104747.7997,0.22555294999999997,-0.02941995,9.8654899,0.00020943951023931956,-0.008185594191853406,-0.01117010721276371
104747.8094,0.24516625,-0.00980665,9.757616749999999,0.004590215932745087,0.0061959188445798695,0.0007330382858376184
104747.8205,0.29419949999999995,-0.08825984999999999,9.855683249999998,0.0036477381366681488,-0.00466002910282486,0.000593411945678072
104747.8304,0.30400615,-0.02941995,9.7674234,-0.006824237375297829,0.008569566627292158,-0.0009424777960769379
104747.8402,0.28439285,-0.0588399,9.826263299999999,0.0060911990894602095,-0.00013962634015954637,-0.0004537856055185257
104747.8501,0.28439285,-0.04903325,9.7674234,0.009407324668249437,-0.0007853981633974482,0.004747295565424576
104747.8603,0.26477955,0.0392266,9.79684335,0.004485496177625427,0.0030543261909900766,0.0023212879051524586
104747.8709,0.22555294999999997,-0.0784532,9.81645665,0.004380776422505767,-0.000890117918517108,0.004328416544945937
104747.8820,0.17651969999999997,-0.0980665,9.757616749999999,-0.001954768762233649,0.0024260076602721182,-0.0037175513067479217
104747.8931,0.2745862,-0.0392266,9.747810099999999,0.004049163864626845,0.0018675022996339325,0.001361356816555577
104747.9040,0.25497289999999995,-0.0784532,9.836069949999999,0.0024434609527920616,0.0004188790204786391,-0.002670353755551324
104747.9150,0.2353596,-0.0392266,9.836069949999999,-0.011885692206081384,0.002949606435870417,-0.004433136300065597
104747.9252,0.22555294999999997,-0.0392266,9.81645665,-0.001710422666954443,0.0054105206811824215,-0.0008377580409572782
104747.9350,0.2353596,-0.06864655,9.8654899,-0.001710422666954443,-0.003612831551628262,0.001780235837034216
104747.9453,0.22555294999999997,-0.0392266,9.826263299999999,-0.0065275314024587925,0.004101523742186674,-0.001361356816555577
104747.9558,0.26477955,-0.02941995,9.79684335,-0.005218534463463045,-0.005480333851262195,0.0006283185307179586
104747.9670,0.3334261,-0.00980665,9.7674234,-0.0019024088846738192,-0.005864306286700947,0.0033859387488689996
104747.9778,0.26477955,-0.00980665,9.79684335,0.0048345620280242935,0.004921828490624009,-0.0038048177693476384
104747.9893,0.24516625,0.0,9.77723005,0.0,-0.0034557519189487725,-0.0045553093477052
104748.0001,0.28439285,-0.06864655,9.747810099999999,0.0010821041362364843,-0.005288347633542819,0.003612831551628262
104748.0109,0.28439285,-0.06864655,9.80665,-0.0007330382858376184,-0.007243116395776467,0.0007504915783575617
104748.0210,0.2353596,-0.00980665,9.8654899,-0.0010471975511965976,-0.0003141592653589793,0.005427973973702365
104748.0309,0.30400615,-0.02941995,9.81645665,0.003961897402027128,-0.000593411945678072,-0.006021385919380436
104748.0419,0.22555294999999997,-0.02941995,9.836069949999999,-0.003193952531149623,-0.004886921905584123,0.0004363323129985824
104748.0520,0.25497289999999995,-0.0588399,9.81645665,-0.0056374134839416844,-0.00022689280275926284,-0.0029321531433504737
104748.0639,0.22555294999999997,-0.0,9.80665,-0.0059515727493006645,0.00486946861306418,-0.0008028514559173916
104748.0719,0.22555294999999997,-0.02941995,9.826263299999999,0.0012042771838760874,0.004049163864626845,-0.0034557519189487725
104748.0820,0.38245935,-0.04903325,9.77723005,0.0012915436464758037,-0.000593411945678072,0.0026878070480712674
104748.0919,0.3138128,-0.0,9.7870367,0.003525565089028546,-0.0014660765716752368,-0.010035643198967395
104748.1018,0.25497289999999995,-0.00980665,9.80665,-0.0009424777960769379,-0.006335545184739416,0.0021642082724729686
104748.1131,0.34323275000000003,-0.04903325,9.7870367,0.005131268000863329,-0.003193952531149623,-0.0004886921905584122
104748.1241,0.26477955,-0.0980665,9.81645665,0.0007504915783575617,-0.0012566370614359172,0.0061959188445798695
104748.1343,0.36284605,-0.04903325,9.77723005,-0.0016057029118347831,0.0013264502315156904,-0.0020594885173533086
104748.1451,0.35303939999999995,-0.00980665,9.826263299999999,0.002076941809873252,0.0032812189937493396,0.007382742735936014
104748.1552,0.25497289999999995,0.00980665,9.77723005,-0.004782202150464463,-0.0016755160819145565,-0.0005759586531581288
104748.1654,0.28439285,-0.10787314999999999,9.79684335,0.0012915436464758037,0.0054105206811824215,0.003159045946109736
104748.1753,0.29419949999999995,-0.0196133,9.7870367,0.0018500490071139892,0.0036477381366681488,-0.002775073510670984
104748.1857,0.21574629999999997,-0.00980665,9.757616749999999,-0.004153883619746504,0.0003665191429188092,-0.001186823891356144
104748.1959,0.18632634999999997,-0.04903325,9.7674234,-0.002129301687433082,-0.007609635538695277,-5.235987755982989e-05
104748.2068,0.29419949999999995,-0.02941995,9.80665,-0.008395033702092726,-0.0006108652381980154,0.0012566370614359172
104748.2168,0.30400615,-0.0980665,9.77723005,0.005899212871740834,-0.0019896753472735357,-0.001954768762233649
104748.2282,0.25497289999999995,0.0,9.836069949999999,0.003351032163829113,0.004014257279586958,0.004956735075663896
104748.2387,0.26477955,-0.06864655,9.7674234,0.001954768762233649,0.0026878070480712674,-0.001832595714594046
104748.2495,0.196133,-0.06864655,9.81645665,-0.0005235987755982988,0.0026354471705114374,0.002408554367752175
104748.2601,0.28439285,-0.06864655,9.81645665,0.003735004599267865,0.00445058959258554,0.003473205211468716
104748.2705,0.25497289999999995,-0.08825984999999999,9.80665,0.0038746309394274117,-0.002007128639793479,0.006824237375297829
104748.2805,0.21574629999999997,-0.04903325,9.7870367,-0.005340707511102648,0.003944444109507185,0.00017453292519943296
104748.2914,0.28439285,-0.04903325,9.757616749999999,0.0041887902047863905,0.011641346110802179,0.002408554367752175
104748.3010,0.25497289999999995,-0.14709974999999997,9.757616749999999,-0.0007330382858376184,-0.0014835298641951802,5.235987755982989e-05
104748.3127,0.196133,-0.0392266,9.81645665,0.0028099800957108708,0.0016231562043547264,0.0018500490071139892
104748.3221,0.29419949999999995,0.02941995,9.81645665,-0.00853466004225227,0.003892084231947355,-0.003438298626428829
104748.3320,0.2353596,-0.06864655,9.79684335,-0.0077492618788548235,0.007138396640656807,-0.005340707511102648
104748.3425,0.29419949999999995,-0.00980665,9.757616749999999,-0.004241150082346221,-0.0010297442586766543,-0.004956735075663896
104748.3541,0.24516625,-0.0784532,9.80665,0.006544984694978736,-0.005550147021341968,0.0035081117965086025
104748.3652,0.22555294999999997,-0.0392266,9.7870367,-0.008499753457212385,0.0011519173063162576,-0.0020943951023931952
104748.3772,0.30400615,-0.02941995,9.77723005,0.00015707963267948965,-0.005096361415823442,-0.0045553093477052
104748.3864,0.24516625,-0.0784532,9.77723005,0.0004886921905584122,-0.0023038346126325153,0.0028797932657906437
104748.3963,0.17651969999999997,-0.0196133,9.747810099999999,0.0008028514559173916,-0.00015707963267948965,0.008604473212332044
104748.4063,0.24516625,-0.04903325,9.80665,0.0006806784082777885,-0.004014257279586958,0.0018151424220741027
104748.4162,0.25497289999999995,-0.00980665,9.845876599999999,-0.0009250245035569946,-0.005480333851262195,0.006998770300497262
104748.4260,0.26477955,-0.02941995,9.79684335,-0.0031764992386296795,-0.001780235837034216,0.00307177948351002
104748.4371,0.28439285,-0.0196133,9.79684335,-0.004014257279586958,-0.003159045946109736,0.003490658503988659
104748.4471,0.3138128,-0.0392266,9.80665,0.010402162341886203,-0.004241150082346221,0.004537856055185257
104748.4569,0.29419949999999995,-0.08825984999999999,9.7870367,0.002495820830351891,0.001710422666954443,-0.001710422666954443
104748.4680,0.2353596,-0.04903325,9.7281968,0.003438298626428829,-0.004921828490624009,-0.0033161255787892262
104748.4808,0.25497289999999995,0.00980665,9.77723005,-0.003926990816987242,0.0033335788713091696,-0.004136430327226561
104748.4930,0.28439285,-0.0,9.826263299999999,-0.0032637657012293962,-0.006579891280018622,0.0007155849933176752
104748.5028,0.29419949999999995,-0.0392266,9.77723005,-0.0009250245035569946,-0.004084070449666731,-0.006283185307179586
104748.5133,0.2745862,-0.0196133,9.7870367,0.003141592653589793,0.0020245819323134223,0.007819075048934596
104748.5232,0.18632634999999997,0.0980665,9.826263299999999,-0.0035953782591083188,-0.0028099800957108708,-0.007452555906015787
104748.5331,0.28439285,0.0,9.8654899,0.0023911010752322315,0.00773180858633488,-0.002234021442552742
104748.5440,0.22555294999999997,-0.0196133,9.77723005,0.004310963252425994,-0.0024434609527920616,-0.00034906585039886593
104748.5540,0.26477955,-0.0,9.7870367,-0.003473205211468716,0.003193952531149623,-0.0005410520681182421
104748.5641,0.32361945,-0.0784532,9.757616749999999,-0.0005061454830783556,-0.008656833089891874,-0.002373647782712288
104748.5749,0.24516625,-0.00980665,9.79684335,-0.0016580627893946131,-0.0030892327760299633,0.0022165681500327986
104748.5849,0.25497289999999995,-0.0588399,9.836069949999999,-0.0062482787221397,-0.0030543261909900766,-0.0024609142453120045
104748.5965,0.30400615,0.0392266,9.7870367,-0.0035953782591083188,0.0031764992386296795,0.0054105206811824215
104748.6073,0.196133,-0.02941995,9.81645665,-0.006562437987498679,-0.0023038346126325153,-1.7453292519943296e-05
104748.6179,0.25497289999999995,0.0196133,9.80665,-0.0006806784082777885,-0.003246312408709453,0.003909537524467298
104748.6311,0.22555294999999997,-0.0392266,9.9047165,-0.0030368728984701333,-0.0016755160819145565,-0.004677482395344803
104748.6406,0.2745862,-0.0784532,9.79684335,0.0016755160819145565,-0.0010471975511965976,0.00019198621771937625
104748.6509,0.2353596,-0.08825984999999999,9.71839015,0.008290313946973065,-0.007609635538695277,0.0044156830075456534
104748.6609,0.24516625,-0.0392266,9.80665,-0.00153588974175501,0.0010821041362364843,-0.0058468529941810045
104748.6718,0.30400615,-0.0196133,9.7870367,-0.003665191429188092,-0.005864306286700947,-0.001832595714594046
104748.6824,0.29419949999999995,-0.00980665,9.826263299999999,0.00767944870877505,-0.0026878070480712674,-0.001308996938995747
104748.6937,0.25497289999999995,0.02941995,9.7674234,0.0023212879051524586,-0.0002443460952792061,0.0007155849933176752
104748.7063,0.196133,-0.0588399,9.7281968,0.0016755160819145565,-0.011868238913561441,-0.00312413936106985
104748.7176,0.30400615,-0.0,9.81645665,-1.7453292519943296e-05,-0.0040666171571467884,0.0010297442586766543
104748.7273,0.26477955,-0.10787314999999999,9.855683249999998,-0.0008377580409572782,0.005009094953223725,-0.004782202150464463
104748.7375,0.2745862,-0.0784532,9.875296549999998,0.006178465552059927,-0.005148721293383272,0.003560471674068432
104748.7472,0.18632634999999997,-0.00980665,9.71839015,-0.0036477381366681488,0.0006981317007977319,0.0009250245035569946
104748.7569,0.24516625,-0.08825984999999999,9.738003449999999,0.0004188790204786391,0.005777039824101231,-0.009546951008408983
104748.7676,0.2353596,0.04903325,9.7674234,0.0036302848441482054,-0.001239183768915974,0.004101523742186674
104748.7789,0.3138128,-0.0588399,9.757616749999999,0.001186823891356144,0.006457718232379019,-0.004049163864626845
104748.7899,0.28439285,-0.06864655,9.757616749999999,-0.0017976891295541594,0.005113814708343385,0.0008203047484373349
104748.8006,0.29419949999999995,-0.06864655,9.80665,0.0015882496193148398,0.0038222710618675817,-0.004904375198104067
104748.8103,0.25497289999999995,-0.00980665,9.69877685,-0.008447393579652554,-0.004084070449666731,-0.0063006385996995295
104748.8223,0.22555294999999997,-0.00980665,9.7870367,-0.0030892327760299633,-0.00153588974175501,0.0006981317007977319
104748.8320,0.25497289999999995,-0.0392266,9.855683249999998,0.0038571776469074684,0.004258603374866164,0.0070685834705770355
104748.8419,0.36284605,-0.0784532,9.77723005,-0.007801621756414653,0.0016231562043547264,-0.00013962634015954637
104748.8519,0.2745862,0.0196133,9.7870367,0.005881759579220891,-0.004136430327226561,-0.003996803987067015
104748.8618,0.21574629999999997,-0.02941995,9.7674234,0.009407324668249437,-0.002478367537831948,-0.008115781021773632
104748.8728,0.2745862,-0.0784532,9.7870367,-0.00481710873550435,-0.0004886921905584122,0.0006981317007977319
104748.8837,0.24516625,0.00980665,9.77723005,-0.0017278759594743863,0.00027925268031909274,-0.003961897402027128
104748.8935,0.22555294999999997,-0.00980665,9.80665,-0.00301941960595019,0.0066322511575784525,-0.0057421332390613445
104748.9036,0.18632634999999997,-0.0784532,9.826263299999999,-0.003543018381548489,-0.006108652381980153,-0.0023911010752322315
104748.9159,0.32361945,-0.0196133,9.81645665,0.0016929693744344998,-0.005044001538263612,-0.0018675022996339325
104748.9272,0.28439285,-0.08825984999999999,9.836069949999999,0.003193952531149623,0.010402162341886203,0.003159045946109736
104748.9370,0.25497289999999995,-0.0196133,9.845876599999999,0.007976154681614086,-0.008080874436733746,-0.0050789081233034985
104748.9482,0.26477955,-0.02941995,9.80665,-0.0015009831567151233,0.0073129295658562405,0.002827433388230814
104748.9592,0.2353596,0.02941995,9.7674234,-0.008028514559173916,0.0004886921905584122,-0.00153588974175501
104748.9690,0.20593965,-0.0588399,9.826263299999999,-0.005166174585903215,-0.0018151424220741027,-0.003141592653589793
104748.9790,0.2745862,-0.0392266,9.7674234,-0.004956735075663896,-0.0042935099599060505,-0.001239183768915974
104748.9898,0.26477955,-0.0980665,9.77723005,-0.005235987755982988,0.0035081117965086025,0.0064053583548191895
104749.0007,0.30400615,-0.02941995,9.81645665,0.007539822368615503,-0.0032114058236695662,-0.006667157742618339
104749.0113,0.3334261,-0.06864655,9.836069949999999,0.011274826967883369,-0.004642575810304917,-0.0003141592653589793
104749.0225,0.22555294999999997,-0.02941995,9.80665,-0.0012217304763960308,-0.0027925268031909274,-8.726646259971648e-05
104749.0321,0.16671305,-0.0784532,9.875296549999998,-0.0008726646259971648,-0.0038222710618675817,0.0006632251157578452
104749.0423,0.2745862,-0.0784532,9.836069949999999,-0.0030368728984701333,-0.007958701389094143,0.0033161255787892262
104749.0519,0.1569064,-0.00980665,9.77723005,-0.003351032163829113,0.010262536001726658,-0.002478367537831948
104749.0618,0.20593965,0.02941995,9.914523149999999,-0.0044156830075456534,-0.010367255756846317,0.0025656340004316645
104749.0729,-0.10787314999999999,-0.0196133,9.894909849999998,-0.0026005405854715507,0.006824237375297829,-0.0007853981633974482
104749.0839,-0.6864655000000001,-0.0196133,9.80665,0.004782202150464463,-0.004537856055185257,-0.003473205211468716
104749.0947,-1.16699135,0.0784532,9.71839015,-0.001954768762233649,0.004328416544945937,0.0037524578917878084
104749.1056,-0.8041453,0.0392266,9.9439431,0.0014660765716752368,0.005235987755982988,0.000890117918517108
104749.1163,-0.1176798,-0.0,9.894909849999998,-0.0007853981633974482,0.0065100781099388496,0.0012042771838760874
104749.1273,0.43149259999999995,-0.0392266,9.71839015,0.0006981317007977319,0.000890117918517108,-0.005288347633542819
104749.1411,0.3138128,-0.06864655,9.836069949999999,0.0048520153205442364,0.007120943348136864,-5.235987755982989e-05
104749.1512,-0.10787314999999999,-0.06864655,9.875296549999998,-0.0010122909661567112,0.002234021442552742,-0.0009075712110370514
104749.1613,-0.4118793,0.02941995,9.77723005,-0.003351032163829113,0.001117010721276371,0.0012042771838760874
104749.1721,-0.34323275000000003,-0.06864655,9.81645665,0.005707226654021458,-0.00301941960595019,-0.0044156830075456534
104749.1830,0.2353596,-0.0784532,9.924329799999999,-0.006021385919380436,-0.002234021442552742,0.002076941809873252
104749.1956,0.50013915,-0.1372931,9.7674234,-0.001361356816555577,-0.00301941960595019,-0.009913470151327791
104749.2046,0.37265269999999995,-0.0980665,9.738003449999999,0.002617993877991494,-0.0031066860685499066,-0.0032288591161895096
104749.2155,0.24516625,-0.06864655,9.79684335,-0.00027925268031909274,-0.00027925268031909274,-0.011065387457644049
104749.2263,0.0392266,-0.0196133,9.845876599999999,-0.0023038346126325153,-0.002286381320112572,-0.007661995416255106
104749.2406,0.0588399,-0.0,9.845876599999999,-0.005602506898901798,-0.008220500776893291,0.002827433388230814
104749.2511,0.392266,0.0392266,9.80665,-0.006981317007977318,-0.005934119456780721,0.001762782544514273
104749.2639,0.57859235,-0.04903325,9.79684335,0.0014660765716752368,-0.0072954762733362976,0.0009075712110370514
104749.2709,0.45110589999999995,-0.0784532,9.7870367,-0.007487462491055674,0.003490658503988659,-0.006370451769779303
104749.2809,0.35303939999999995,-0.04903325,9.71839015,-0.007278022980816354,-0.0017453292519943296,0.006230825429619756
104749.2908,0.1372931,-0.0784532,9.77723005,-0.0060911990894602095,0.006265732014659643,0.0017976891295541594
104749.3008,0.1372931,-0.04903325,9.826263299999999,-0.002478367537831948,0.0037175513067479217,-0.0006457718232379018
104749.3108,0.20593965,-0.08825984999999999,9.7870367,-0.0031066860685499066,-0.0015533430342749533,-0.0013788101090755204
104749.3212,0.40207265,0.00980665,9.81645665,-0.004206243497306334,0.0012740903539558606,0.00010471975511965978
104749.3314,0.5687857,-0.1372931,9.77723005,-0.005253441048502932,-0.0026529004630313807,0.0012566370614359172
104749.3414,0.4903325,-0.0588399,9.79684335,0.0019024088846738192,-0.00013962634015954637,0.0007330382858376184
104749.3515,0.22555294999999997,-0.0980665,9.826263299999999,0.0008552113334772215,0.003193952531149623,-0.00012217304763960306
104749.3612,0.0980665,-0.08825984999999999,9.79684335,-0.005689773361501515,-5.235987755982989e-05,0.0009424777960769379
104749.3729,0.22555294999999997,-0.0588399,9.7870367,-0.0041887902047863905,-0.0035953782591083188,0.0024260076602721182
104749.3840,0.36284605,-0.04903325,9.77723005,-0.005916666164260778,0.00022689280275926284,0.0017976891295541594
104749.3952,0.43149259999999995,-0.0784532,9.747810099999999,-0.0007504915783575617,-0.0030543261909900766,0.0079412480965742
104749.4051,0.5295591,-0.04903325,9.80665,0.0035953782591083188,-0.002530727415391778,0.0016755160819145565
104749.4161,0.30400615,-0.0588399,9.8654899,0.0021118483949131386,0.0055152404363020815,0.0011693705988362008
104749.4261,0.20593965,0.0,9.81645665,0.007330382858376184,0.001413716694115407,-0.004782202150464463
104749.4363,0.16671305,-0.0588399,9.81645665,-0.01038470904936626,0.001780235837034216,-0.0007330382858376184
104749.4473,0.26477955,-0.0,9.757616749999999,0.0008203047484373349,0.003420845333908886,0.0019198621771937625
104749.4578,0.36284605,0.02941995,9.826263299999999,-0.0017453292519943296,-0.0044156830075456534,-0.004136430327226561
104749.4691,0.392266,-0.0588399,9.7085835,0.005026548245743669,0.00476474885794452,0.0005410520681182421
104749.4790,0.3138128,-0.06864655,9.757616749999999,-0.002373647782712288,-0.0027925268031909274,-0.0004188790204786391
104749.4890,0.17651969999999997,-0.02941995,9.738003449999999,0.008412486994612669,-0.00012217304763960306,-0.001361356816555577
104749.4997,0.08825984999999999,-0.06864655,9.77723005,-0.001413716694115407,-0.0032114058236695662,-0.0016929693744344998
104749.5114,0.14709974999999997,-0.00980665,9.77723005,-0.0021467549799530253,-0.00153588974175501,0.006265732014659643
104749.5210,0.21574629999999997,-0.0392266,9.855683249999998,0.0011693705988362008,-0.0008552113334772215,0.0004363323129985824
104749.5317,0.32361945,0.0196133,9.757616749999999,-0.002617993877991494,-0.00815068760681352,-0.0035081117965086025
104749.5414,0.28439285,-0.04903325,9.7281968,0.0027401669256310974,0.002356194490192345,0.006719517620178169
104749.5520,0.25497289999999995,0.0392266,9.826263299999999,-0.0074176493209759005,-0.005131268000863329,-0.0032637657012293962
104749.5631,0.16671305,-0.0392266,9.79684335,-0.0017453292519943296,-0.004904375198104067,-0.0008203047484373349
104749.5745,0.1372931,-0.0784532,9.80665,0.00027925268031909274,0.0017976891295541594,0.0007853981633974482
104749.5849,0.22555294999999997,-0.0588399,9.80665,0.0021991148575128553,-0.006178465552059927,0.00012217304763960306
104749.5957,0.29419949999999995,0.0392266,9.7674234,-0.0050789081233034985,0.0010297442586766543,-0.0025132741228718345
104749.6054,0.34323275000000003,-0.0784532,9.826263299999999,0.0027401669256310974,-0.005532693728822024,-0.0035953782591083188
104749.6154,0.25497289999999995,-0.0784532,9.836069949999999,-0.0033684854563490563,0.00019198621771937625,-0.005480333851262195
104749.6252,0.16671305,0.02941995,9.738003449999999,-0.0018500490071139892,0.0018151424220741027,-0.004101523742186674
104749.6354,0.22555294999999997,-0.0392266,9.81645665,-0.0033684854563490563,0.000890117918517108,0.005235987755982988
104749.6455,0.24516625,-0.0392266,9.826263299999999,0.004537856055185257,0.002234021442552742,-0.005899212871740834
104749.6552,0.2745862,-0.04903325,9.80665,-0.000593411945678072,0.006475171524898963,-0.0018500490071139892
104749.6653,0.3334261,-0.0588399,9.826263299999999,0.00015707963267948965,0.00047123889803846896,-0.0010122909661567112
104749.6752,0.26477955,-0.0784532,9.747810099999999,-0.000296705972839036,0.004363323129985824,-0.0006632251157578452
104749.6878,0.24516625,-0.00980665,9.836069949999999,0.006544984694978736,0.006073745796940267,-0.011711159280881952
104749.6988,0.25497289999999995,-0.0392266,9.81645665,-0.0004014257279586958,-0.0006108652381980154,0.0045029494701453706
104749.7105,0.2745862,-0.0392266,9.8654899,-0.0022165681500327986,0.005358160803622592,0.0037699111843077517
104749.7200,0.29419949999999995,-0.0,9.79684335,0.0009075712110370514,-0.0002617993877991494,0.00047123889803846896
104749.7335,0.30400615,-0.0392266,9.80665,0.000767944870877505,-0.0022514747350726853,-0.006318091892219472
104749.7416,0.2745862,-0.06864655,9.79684335,-0.0,0.0003665191429188092,0.005567600313861911
104749.7515,0.20593965,-0.0392266,9.80665,0.003543018381548489,-0.0011693705988362008,-0.0026005405854715507
104749.7629,0.18632634999999997,-0.06864655,9.79684335,-0.0027576202181510408,0.002286381320112572,-0.005131268000863329
104749.7731,0.21574629999999997,-0.0,9.826263299999999,-0.0010471975511965976,0.004258603374866164,0.001762782544514273
104749.7842,0.2353596,-0.02941995,9.7870367,-0.0021991148575128553,-0.008569566627292158,-0.0016580627893946131
104749.7944,0.3138128,-0.06864655,9.747810099999999,0.0003839724354387525,0.0030892327760299633,0.011205013797803596
104749.8055,0.3138128,-0.00980665,9.7870367,-0.012671090369478832,0.004799655442984407,-0.0025656340004316645
104749.8156,0.24516625,0.00980665,9.7870367,0.005672320068981571,-0.0017976891295541594,0.004380776422505767
104749.8254,0.24516625,0.0,9.79684335,0.0008726646259971648,-0.004956735075663896,-0.002617993877991494
104749.8353,0.37265269999999995,-0.06864655,9.81645665,-0.003839724354387525,0.003141592653589793,-0.010873401239924673
104749.8463,0.28439285,-0.00980665,9.79684335,-0.00778416846389471,1.7453292519943296e-05,0.003438298626428829
104749.8557,0.26477955,-0.0784532,9.79684335,0.0026878070480712674,5.235987755982989e-05,-0.005375614096142535
104749.8659,0.3138128,-0.04903325,9.81645665,-0.0006981317007977319,0.0073129295658562405,0.0037699111843077517
104749.8768,0.196133,0.0,9.79684335,0.0027925268031909274,-0.010786134777324957,-0.0015882496193148398
104749.8876,0.28439285,-0.04903325,9.7870367,-0.004677482395344803,-0.0071907565182166375,0.005759586531581287
104749.8987,0.2745862,-0.0588399,9.826263299999999,-0.0051836278784231585,6.981317007977319e-05,0.0009075712110370514
104749.9086,0.2353596,-0.0392266,9.7870367,0.003141592653589793,0.000767944870877505,0.0032288591161895096
104749.9185,0.26477955,-0.04903325,9.757616749999999,-0.0030543261909900766,-0.005288347633542819,0.007557275661135447
104749.9298,0.22555294999999997,-0.0196133,9.7674234,0.00047123889803846896,0.004310963252425994,0.000593411945678072
104749.9402,0.32361945,-0.0784532,9.7674234,0.010611601852125523,-0.0061959188445798695,0.008499753457212385
104749.9505,0.22555294999999997,0.0,9.7674234,0.004101523742186674,0.006492624817418906,-0.00301941960595019
104749.9629,0.2353596,-0.10787314999999999,9.826263299999999,0.0014486232791552935,-0.0005585053606381855,-0.0016580627893946131
104749.9784,0.30400615,-0.02941995,9.7870367,0.002076941809873252,0.0006632251157578452,-0.0013264502315156904
104749.9860,0.26477955,-0.04903325,9.826263299999999,0.0014311699866353504,0.0015533430342749533,-0.0009948376736367678
104749.9961,0.3138128,-0.00980665,9.7674234,-0.001780235837034216,-0.0029321531433504737,-0.001117010721276371
104750.0059,0.25497289999999995,-0.02941995,9.747810099999999,0.0019896753472735357,-0.00614355896702004,0.00788888821901437
104750.0163,0.25497289999999995,-0.0392266,9.7674234,-0.00017453292519943296,-0.0026529004630313807,0.005777039824101231
104750.0262,0.25497289999999995,-0.0196133,9.79684335,-0.0023038346126325153,0.0032288591161895096,0.0046251225177849735
104750.0371,0.38245935,-0.06864655,9.855683249999998,-0.000593411945678072,0.004276056667386108,-0.004799655442984407
104750.0474,0.25497289999999995,0.0,9.80665,0.0020420352248333657,0.0027925268031909274,-0.0015184364492350666
104750.0600,0.25497289999999995,-0.0392266,9.79684335,0.0002443460952792061,0.0028448866807507574,0.0016755160819145565
104750.0708,0.28439285,-0.04903325,9.81645665,-0.005427973973702365,0.0016755160819145565,-0.004049163864626845
104750.0805,0.24516625,-0.04903325,9.747810099999999,-0.001117010721276371,0.004747295565424576,0.0021118483949131386
104750.0902,0.28439285,-0.1372931,9.80665,0.00986111027376796,0.0016755160819145565,8.726646259971648e-05
104750.1021,0.28439285,-0.04903325,9.79684335,-0.0003839724354387525,0.0049741883681838385,-0.0006457718232379018
104750.1130,0.25497289999999995,-0.0392266,9.826263299999999,0.0029670597283903604,0.0032114058236695662,0.0009599310885968813
104750.1239,0.24516625,-0.0196133,9.80665,-0.0012217304763960308,-0.0048345620280242935,-0.0028797932657906437
104750.1343,0.26477955,-0.0784532,9.836069949999999,0.007330382858376184,-0.004433136300065597,-0.0012915436464758037
104750.1458,0.25497289999999995,-0.0196133,9.8851032,-0.002076941809873252,0.0041887902047863905,-0.0032637657012293962
104750.1584,0.26477955,-0.0392266,9.79684335,0.0019896753472735357,-0.0020943951023931952,0.0021118483949131386
104750.1712,0.24516625,-0.02941995,9.8851032,-0.005794493116621174,-0.008569566627292158,-0.0018151424220741027
104750.1810,0.24516625,-0.06864655,9.7281968,0.004363323129985824,0.0053058009260627615,0.006684611035138282
104750.1913,0.2745862,-0.04903325,9.79684335,0.004991641660703782,0.0010471975511965976,-0.0009599310885968813
104750.2014,0.2745862,0.0980665,9.845876599999999,0.007243116395776467,-0.001710422666954443,0.0032812189937493396
104750.2112,0.30400615,-0.0392266,9.836069949999999,0.00958185759344887,0.003351032163829113,-0.007435102613495843
104750.2218,0.25497289999999995,-0.02941995,9.7870367,0.009896016858807848,0.00471238898038469,-0.0014835298641951802
104750.2336,0.196133,-0.0392266,9.79684335,0.002408554367752175,0.0038571776469074684,-0.0033684854563490563
104750.2425,0.21574629999999997,-0.0,9.7870367,0.007016223593017205,0.0004188790204786391,0.0025656340004316645
104750.2538,0.28439285,-0.0196133,9.79684335,-0.008395033702092726,-0.005794493116621174,-0.0051836278784231585
104750.2647,0.24516625,-0.02941995,9.855683249999998,0.006021385919380436,-0.0057421332390613445,0.0022165681500327986
104750.2753,0.30400615,-0.02941995,9.81645665,0.0014311699866353504,0.0045553093477052,-0.003892084231947355
104750.2852,0.29419949999999995,-0.00980665,9.7674234,-0.006911503837897545,-0.004991641660703782,-0.0038048177693476384
104750.2966,0.21574629999999997,-0.00980665,9.77723005,-0.0009424777960769379,-0.004433136300065597,-0.0079412480965742
104750.3083,0.40207265,0.00980665,9.7674234,-0.0028623399732707008,0.00010471975511965978,-0.006667157742618339
104750.3193,0.4118793,-0.00980665,9.757616749999999,0.0069638637154573755,-0.0016057029118347831,0.0035953782591083188
104750.3294,0.6864655000000001,-0.04903325,9.7870367,-0.008517206749732328,-0.004206243497306334,-0.0014835298641951802
104750.3442,0.6080123,-0.10787314999999999,9.747810099999999,0.00034906585039886593,-0.0016755160819145565,0.0029670597283903604
104750.3569,0.48052585,0.0196133,9.836069949999999,-0.005113814708343385,0.0028099800957108708,0.006161012259539983
104750.3655,0.6472389,0.22555294999999997,9.845876599999999,-0.003944444109507185,0.007958701389094143,-0.005602506898901798
104750.3758,1.0395048999999998,0.08825984999999999,9.9047165,-0.004363323129985824,-0.0063006385996995295,-0.003420845333908886
104750.3861,1.4513842,-0.14709974999999997,9.7281968,0.01265363707695889,0.0047298422729046335,-0.004782202150464463
104750.3965,1.34351105,-0.18632634999999997,9.54187045,0.0029146998508305304,-0.002949606435870417,-0.008831366015091307
104750.4075,0.8041453,0.00980665,9.79684335,0.0037524578917878084,-0.0006283185307179586,8.726646259971648e-05
104750.4190,0.18632634999999997,0.04903325,9.894909849999998,0.008674286382411817,0.002548180707911721,0.006230825429619756
104750.4284,0.18632634999999997,-0.0980665,9.738003449999999,-0.003298672286269283,-0.007696902001294993,0.0030368728984701333
104750.4385,0.29419949999999995,-0.08825984999999999,9.7674234,-0.0023387411976724015,-0.0015882496193148398,0.0008203047484373349
104750.4484,0.65704555,0.00980665,9.894909849999998,-0.004694935687864747,-0.007766715171374766,0.0002617993877991494
104750.4593,0.6962721499999999,-0.00980665,9.826263299999999,-0.010035643198967395,0.000890117918517108,-0.0036477381366681488
104750.4693,0.50013915,-0.0980665,9.738003449999999,0.0016406094968746698,0.01345648853287628,0.0026354471705114374
104750.4791,0.26477955,0.10787314999999999,9.7281968,1.7453292519943296e-05,0.003159045946109736,0.0006981317007977319
104750.4891,0.02941995,-0.06864655,9.79684335,-0.004590215932745087,-0.0040666171571467884,0.0027052603405912107
104750.4988,0.0980665,-0.0784532,9.845876599999999,-0.003403392041388943,-0.0005585053606381855,0.007155849933176751
104750.5098,0.32361945,0.0,9.71839015,0.004921828490624009,-0.005061454830783556,0.0019373154697137059
104750.5210,0.4707192,-0.0196133,9.836069949999999,-8.726646259971648e-05,0.0037524578917878084,0.005026548245743669
104750.5313,0.48052585,-0.08825984999999999,9.79684335,-0.004014257279586958,0.005602506898901798,-0.0065100781099388496
104750.5423,0.30400615,-0.1372931,9.7674234,-0.005323254218582705,0.005218534463463045,-0.0012217304763960308
104750.5522,-0.0196133,0.00980665,9.9047165,-0.002007128639793479,-3.490658503988659e-05,0.002356194490192345
104750.5625,-0.16671305,-0.06864655,9.77723005,0.0042935099599060505,0.004014257279586958,-0.006126105674500096
104750.5739,-0.1372931,-0.12748644999999997,9.77723005,0.0064228116473391324,0.002129301687433082,-0.001361356816555577
104750.5836,0.12748644999999997,-0.0588399,9.77723005,0.00471238898038469,-0.006126105674500096,-0.004782202150464463
104750.5938,0.26477955,-0.12748644999999997,9.7870367,-0.008726646259971648,0.0018500490071139892,-0.001239183768915974
104750.6033,0.21574629999999997,-0.04903325,9.80665,0.008656833089891874,0.005096361415823442,-0.0007155849933176752
104750.6142,0.10787314999999999,-0.0,9.7870367,0.004921828490624009,-0.0024260076602721182,0.004363323129985824
104750.6241,0.0392266,0.04903325,9.757616749999999,0.0004363323129985824,0.00476474885794452,-0.014590952546672595
104750.6340,-0.0784532,-0.0196133,9.855683249999998,-0.0004363323129985824,0.0016231562043547264,-0.005794493116621174
104750.6444,0.10787314999999999,0.00980665,9.7674234,-0.006824237375297829,0.003944444109507185,-0.002478367537831948
104750.6596,0.32361945,-0.04903325,9.8654899,-0.0011344640137963143,0.005672320068981571,-0.00047123889803846896
104750.6672,0.21574629999999997,-0.0196133,9.826263299999999,0.0026354471705114374,-0.0038746309394274117,0.013369222070276564
104750.6792,0.3334261,-0.0784532,9.747810099999999,-0.0027401669256310974,0.0013264502315156904,-0.0010122909661567112
104750.6917,0.28439285,-0.0392266,9.80665,0.007173303225696694,-0.011554079648202462,-0.0010821041362364843
104750.7044,0.2353596,-0.08825984999999999,9.77723005,-0.0024434609527920616,0.003438298626428829,0.0002443460952792061
104750.7142,0.28439285,-0.0392266,9.77723005,-0.0037000980142279784,0.0027576202181510408,0.0012042771838760874
104750.7242,0.35303939999999995,0.02941995,9.826263299999999,-0.0045553093477052,-8.726646259971648e-05,0.0002443460952792061
104750.7346,0.3334261,-0.02941995,9.875296549999998,-0.0014311699866353504,-0.0010471975511965976,0.004677482395344803
104750.7446,0.35303939999999995,0.02941995,9.7674234,0.002076941809873252,0.0028448866807507574,0.0020420352248333657
104750.7547,0.26477955,-0.0392266,9.855683249999998,-0.0010122909661567112,-0.009494591130849153,0.00890117918517108
104750.7645,0.2745862,0.0,9.757616749999999,0.008691739674931762,0.003193952531149623,-0.005393067388662479
104750.7765,0.30400615,-0.04903325,9.836069949999999,0.0030368728984701333,0.0021467549799530253,-0.0007155849933176752
104750.7871,0.26477955,-0.0,9.826263299999999,0.0018500490071139892,-0.005550147021341968,0.0076270888312152205
104750.7986,0.30400615,-0.04903325,9.81645665,0.0030019663134302466,0.002356194490192345,0.0038222710618675817
104750.8091,0.22555294999999997,-0.06864655,9.826263299999999,0.002356194490192345,-0.003525565089028546,-0.0017976891295541594
104750.8211,0.20593965,-0.08825984999999999,9.7674234,-0.004380776422505767,0.0054105206811824215,-0.003141592653589793
104750.8318,0.17651969999999997,-0.10787314999999999,9.80665,0.0012915436464758037,-0.003787364476827695,0.0037175513067479217
104750.8429,0.26477955,-0.0980665,9.845876599999999,-0.0025656340004316645,-0.0046251225177849735,-0.002949606435870417
104750.8537,0.2745862,-0.00980665,9.81645665,-0.002007128639793479,0.002181661564992912,-0.003246312408709453
104750.8637,0.26477955,-0.08825984999999999,9.80665,0.0030019663134302466,0.0006632251157578452,-0.0023038346126325153
104750.8748,0.2745862,-0.02941995,9.79684335,0.006649704450098395,-0.0036477381366681488,0.0025656340004316645
104750.8849,0.17651969999999997,0.02941995,9.7674234,-0.001239183768915974,0.008203047484373348,0.004084070449666731
104750.8953,0.30400615,-0.04903325,9.81645665,-0.0028623399732707008,0.005235987755982988,0.004276056667386108
104750.9051,0.29419949999999995,-0.06864655,9.826263299999999,0.0070685834705770355,0.002478367537831948,0.009337511498169663
104750.9175,0.2353596,-0.0784532,9.79684335,0.005881759579220891,-0.007260569688296411,0.0079412480965742
104750.9250,0.32361945,-0.02941995,9.738003449999999,0.005777039824101231,0.0003839724354387525,0.003403392041388943
104750.9369,0.26477955,-0.0392266,9.81645665,-0.005340707511102648,-0.009564404300928926,0.0004014257279586958
104750.9480,0.2353596,-0.0,9.836069949999999,0.003525565089028546,-0.0025656340004316645,-0.002234021442552742
104750.9587,0.30400615,-0.02941995,9.80665,0.0021467549799530253,-0.0011519173063162576,-0.0053058009260627615
104750.9698,0.22555294999999997,-0.08825984999999999,9.81645665,-0.0058468529941810045,0.006614797865058509,-0.0047298422729046335
104750.9798,0.28439285,-0.06864655,9.81645665,-0.0026354471705114374,0.0006806784082777885,0.005427973973702365
104750.9907,0.29419949999999995,-0.04903325,9.7870367,-0.0024434609527920616,-0.0002617993877991494,0.005218534463463045
104751.0027,0.18632634999999997,-0.08825984999999999,9.845876599999999,0.0033161255787892262,0.0014660765716752368,-0.006771877497737999
104751.0141,0.22555294999999997,0.0196133,9.7870367,-0.004677482395344803,0.0026529004630313807,-0.0023038346126325153
104751.0256,0.32361945,0.00980665,9.845876599999999,0.008255407361933179,0.0019722220547535923,-0.0023212879051524586
104751.0367,0.29419949999999995,-0.0784532,9.836069949999999,0.000767944870877505,0.00466002910282486,0.0024609142453120045
104751.0474,0.29419949999999995,-0.0196133,9.845876599999999,-0.0011519173063162576,-0.007400196028455957,-0.0005410520681182421
104751.0570,0.22555294999999997,-0.1176798,9.80665,0.005585053606381855,0.0015184364492350666,0.005323254218582705
104751.1043,0.21574629999999997,0.00980665,9.7674234,-0.001780235837034216,-0.0057421332390613445,-0.00307177948351002
104751.1183,0.26477955,-0.02941995,9.81645665,-0.002181661564992912,0.006440264939859076,0.0019373154697137059
104751.1332,0.26477955,-0.00980665,9.79684335,0.005480333851262195,-0.004014257279586958,0.0072082098107365804
104751.1684,0.2745862,-0.08825984999999999,9.81645665,0.00301941960595019,0.005899212871740834,-0.007714355293814937
104751.2022,0.30400615,-0.02941995,9.855683249999998,0.0023911010752322315,0.003543018381548489,-0.0032637657012293962
104751.2123,0.35303939999999995,0.0196133,9.7281968,-0.006684611035138282,0.005218534463463045,-0.0023911010752322315
104751.2224,0.22555294999999997,-0.02941995,9.80665,0.005916666164260778,-0.0012566370614359172,0.0003316125578789226
104751.2352,0.26477955,-0.0588399,9.7870367,0.006370451769779303,-0.0050789081233034985,0.004886921905584123
104751.2472,0.30400615,-0.04903325,9.80665,0.005934119456780721,-0.003735004599267865,0.008918632477691025
104751.2571,0.28439285,-0.0392266,9.79684335,-0.004031710572106902,-0.002408554367752175,-0.0025132741228718345
104751.2680,0.2745862,-0.0588399,9.757616749999999,5.235987755982989e-05,-0.0009948376736367678,-0.0007155849933176752
104751.2792,0.2745862,-0.00980665,9.747810099999999,-0.006161012259539983,-0.0022689280275926286,-0.007696902001294993
104751.2892,0.21574629999999997,-0.0392266,9.80665,0.00013962634015954637,-0.008115781021773632,0.0019198621771937625
104751.2990,0.196133,0.00980665,9.81645665,-0.009791297103688189,0.003351032163829113,-0.0004886921905584122
104751.3100,0.28439285,-0.0588399,9.79684335,0.0018675022996339325,-0.0019722220547535923,0.004363323129985824
104751.3201,0.28439285,-0.08825984999999999,9.80665,-0.0037000980142279784,-0.0005235987755982988,1.7453292519943296e-05
104751.3310,0.3334261,0.00980665,9.7674234,-0.003159045946109736,0.003490658503988659,-0.010576695267085637
104751.3409,0.26477955,-0.00980665,9.826263299999999,-0.01213003830136059,0.004939281783143952,0.005235987755982988
104751.3514,0.22555294999999997,-0.0392266,9.738003449999999,0.0017278759594743863,-0.005445427266222308,-0.008272860654453122
104751.3722,0.29419949999999995,0.04903325,9.81645665,-0.0015533430342749533,0.0023911010752322315,0.0036302848441482054
104751.3833,0.28439285,-0.10787314999999999,9.826263299999999,-0.003246312408709453,-6.981317007977319e-05,0.006056292504420323
104751.3932,0.29419949999999995,-0.00980665,9.77723005,0.0037175513067479217,-0.005550147021341968,0.011868238913561441
104751.4047,0.3334261,-0.00980665,9.7674234,-0.003159045946109736,0.002722713633111154,-0.008988445647770798
104751.4148,0.25497289999999995,-0.06864655,9.7870367,-0.005707226654021458,0.001954768762233649,0.0036302848441482054
104751.4259,0.2745862,-0.0588399,9.7870367,0.0021991148575128553,0.0015707963267948964,0.005323254218582705
104751.4358,0.25497289999999995,-0.0,9.79684335,0.002530727415391778,-6.981317007977319e-05,0.0006457718232379018
104751.4470,0.2745862,-0.0588399,9.81645665,-0.0005759586531581288,0.00020943951023931956,0.004153883619746504
104751.4571,0.26477955,-0.04903325,9.757616749999999,-0.003787364476827695,-0.005445427266222308,-0.0049741883681838385
104751.4679,0.2353596,0.0,9.738003449999999,-3.490658503988659e-05,-0.0016580627893946131,0.004258603374866164
104751.4794,0.32361945,-0.0980665,9.77723005,0.006161012259539983,-0.0018151424220741027,0.0003316125578789226
104751.4918,0.29419949999999995,-0.00980665,9.79684335,-0.0046251225177849735,-0.001308996938995747,-0.0023038346126325153
104751.5027,0.2353596,-0.04903325,9.79684335,0.0014486232791552935,-0.002408554367752175,0.003735004599267865
104751.5148,0.30400615,0.0196133,9.747810099999999,-0.0022689280275926286,0.01350884841043611,-0.0021642082724729686
104751.5255,0.29419949999999995,0.00980665,9.7870367,-0.00614355896702004,0.00307177948351002,0.002897246558310587
104751.5362,0.21574629999999997,-0.0196133,9.7674234,-0.003787364476827695,0.004031710572106902,-0.0007155849933176752
104751.5460,0.2353596,-0.06864655,9.855683249999998,0.0021642082724729686,-0.00047123889803846896,0.006370451769779303
104751.5565,0.25497289999999995,-0.08825984999999999,9.7870367,-0.007016223593017205,-0.0020594885173533086,0.0029845130209103037
104751.5662,0.28439285,-0.0,9.77723005,0.0004886921905584122,-0.0047298422729046335,0.00815068760681352
104751.5762,0.2745862,-0.02941995,9.738003449999999,-0.005829399701661061,0.0017453292519943296,0.006370451769779303
104751.5881,0.26477955,-0.0196133,9.855683249999998,0.0071907565182166375,-0.003246312408709453,0.0004014257279586958
104751.5983,0.29419949999999995,0.02941995,9.79684335,-0.00486946861306418,-0.00022689280275926284,-0.004782202150464463
104751.6198,0.28439285,0.02941995,9.757616749999999,0.003892084231947355,0.0014835298641951802,-0.0005235987755982988
104751.6227,0.3138128,-0.00980665,9.79684335,-0.00153588974175501,0.0016929693744344998,-0.0037000980142279784
104751.6337,0.32361945,-0.02941995,9.81645665,0.000296705972839036,0.001361356816555577,0.0012915436464758037
104751.6439,0.2745862,-0.0588399,9.8654899,-0.007853981633974483,-0.00486946861306418,-0.0019024088846738192
104751.6549,0.24516625,-0.04903325,9.80665,0.0003839724354387525,-0.0003839724354387525,-0.005393067388662479
104751.6659,0.25497289999999995,-0.02941995,9.747810099999999,0.0004014257279586958,-0.0012740903539558606,0.003944444109507185
104751.6760,0.22555294999999997,0.0392266,9.81645665,-0.0033161255787892262,0.0031764992386296795,0.009896016858807848
104751.6862,0.22555294999999997,0.0392266,9.747810099999999,0.0024609142453120045,-0.0031764992386296795,0.009337511498169663
104751.6967,0.30400615,-0.0392266,9.80665,0.0056199601914217415,0.0003316125578789226,-0.0027401669256310974
104751.7068,0.2745862,-0.02941995,9.81645665,-0.0002617993877991494,0.003193952531149623,-0.0018675022996339325
104751.7169,0.30400615,-0.00980665,9.7674234,-0.0034557519189487725,0.0060911990894602095,-0.0034557519189487725
104751.7268,0.30400615,-0.04903325,9.79684335,-0.0022689280275926286,-0.0029321531433504737,0.0010821041362364843
104751.7372,0.2353596,0.0196133,9.80665,0.0021991148575128553,0.0032114058236695662,-0.004310963252425994
104751.7472,0.21574629999999997,-0.0784532,9.845876599999999,-0.001954768762233649,-0.0006108652381980154,-0.00853466004225227
104751.7570,0.29419949999999995,0.0,9.79684335,0.004782202150464463,0.0008028514559173916,-0.005585053606381855
104751.8282,0.32361945,0.0,9.79684335,0.0012566370614359172,-0.0005410520681182421,-0.005689773361501515
104751.8756,0.28439285,0.00980665,9.7870367,-0.00153588974175501,-0.0042935099599060505,-0.000296705972839036
104751.9318,0.25497289999999995,0.02941995,9.7674234,0.00307177948351002,-0.0005235987755982988,0.0036302848441482054
104751.9421,0.196133,-0.00980665,9.80665,-0.0020420352248333657,-0.002408554367752175,-0.004310963252425994
104751.9520,0.30400615,-0.02941995,9.836069949999999,0.00481710873550435,-0.00614355896702004,0.001064650843716541
104751.9633,0.24516625,-0.0392266,9.79684335,0.005986479334340551,-0.0007853981633974482,0.0003316125578789226
104751.9725,0.25497289999999995,-0.0392266,9.80665,-0.004049163864626845,0.00022689280275926284,0.000767944870877505
104751.9824,0.26477955,-0.06864655,9.7870367,-0.0065100781099388496,-0.006126105674500096,0.004153883619746504
104751.9935,0.2745862,-0.02941995,9.79684335,0.0037524578917878084,-0.002897246558310587,0.005323254218582705
104752.0032,0.3138128,-0.00980665,9.826263299999999,0.0020245819323134223,-0.00312413936106985,-0.008360127117052838
104752.0134,0.29419949999999995,-0.00980665,9.826263299999999,0.0025656340004316645,-0.005585053606381855,0.003403392041388943
104752.0233,0.2745862,-0.0588399,9.77723005,-0.0005410520681182421,-0.002286381320112572,-0.006440264939859076
104752.0330,0.2353596,-0.04903325,9.77723005,-0.007382742735936014,-0.006318091892219472,-0.011431906600562858
104752.0446,0.32361945,-0.04903325,9.80665,0.0013788101090755204,0.0004886921905584122,0.0036302848441482054
104752.0541,0.26477955,-0.06864655,9.79684335,-0.0042935099599060505,0.00013962634015954637,-0.003141592653589793
104752.0639,0.25497289999999995,-0.0392266,9.845876599999999,-0.006178465552059927,0.0006632251157578452,-0.0016580627893946131
104752.0751,0.2745862,-0.04903325,9.855683249999998,-0.002775073510670984,0.007138396640656807,0.0030368728984701333
104752.0855,0.28439285,-0.0392266,9.7281968,0.002356194490192345,-0.001762782544514273,0.000890117918517108
104752.0958,0.25497289999999995,-0.1176798,9.69877685,-0.004153883619746504,0.0015707963267948964,-0.0014311699866353504
104752.1054,0.2745862,-0.00980665,9.79684335,-0.005445427266222308,0.011571532940722405,-0.0018151424220741027
104752.1154,0.21574629999999997,-0.04903325,9.80665,0.0007504915783575617,0.004258603374866164,-0.0016231562043547264
104752.1254,0.26477955,-0.0980665,9.7674234,0.00471238898038469,0.0009599310885968813,0.00015707963267948965
104752.1354,0.29419949999999995,-0.08825984999999999,9.81645665,0.00010471975511965978,-0.0035953782591083188,-0.0003665191429188092
104752.1455,0.20593965,-0.0392266,9.77723005,0.0007330382858376184,-0.003159045946109736,-0.005044001538263612
104752.1554,0.2745862,0.02941995,9.80665,8.726646259971648e-05,0.0014660765716752368,-0.0040666171571467884
104752.1654,0.196133,0.00980665,9.836069949999999,0.0029670597283903604,-0.0014835298641951802,0.007260569688296411
104752.1755,0.25497289999999995,-0.06864655,9.79684335,-0.003979350694547071,-0.003682644721708035,-0.001117010721276371
104752.1854,0.24516625,-0.0588399,9.7674234,0.0005061454830783556,0.00027925268031909274,-0.004904375198104067
104752.1954,0.3334261,0.0,9.738003449999999,0.0024260076602721182,0.006073745796940267,-0.001710422666954443
104752.2064,0.36284605,-0.04903325,9.855683249999998,-0.001954768762233649,-0.003682644721708035,6.981317007977319e-05
104752.2189,0.25497289999999995,-0.02941995,9.81645665,0.0018675022996339325,-0.004607669225265031,0.002286381320112572
104752.2328,0.24516625,-0.02941995,9.79684335,-0.006894050545377602,-0.006562437987498679,0.0018675022996339325
104752.2427,0.26477955,-0.00980665,9.81645665,-0.003159045946109736,-0.0014660765716752368,0.002722713633111154
104752.2536,0.26477955,0.00980665,9.826263299999999,-0.0014311699866353504,-0.00973893722612836,0.005654866776461628
104752.2643,0.2353596,-0.0392266,9.79684335,0.0035953782591083188,0.0002617993877991494,0.005148721293383272
104752.2743,0.28439285,-0.0784532,9.826263299999999,0.0024434609527920616,-0.005427973973702365,0.005026548245743669
104752.2844,0.29419949999999995,-0.0588399,9.875296549999998,-0.007714355293814937,-0.006003932626860493,0.000890117918517108
104752.2962,0.20593965,-0.10787314999999999,9.80665,-0.01007054978400728,0.002234021442552742,-0.005969026041820607
104752.3050,0.25497289999999995,0.00980665,9.855683249999998,0.007976154681614086,-0.0008203047484373349,0.003438298626428829
104752.3164,0.28439285,-0.04903325,9.836069949999999,-0.006754424205218055,0.006021385919380436,0.004310963252425994
104752.3290,0.25497289999999995,-0.0196133,9.845876599999999,6.981317007977319e-05,0.005445427266222308,-0.006387905062299246
104752.3400,0.2353596,-0.0392266,9.7870367,0.001239183768915974,-0.0006632251157578452,-0.0009948376736367678
104752.3514,0.24516625,-0.00980665,9.7674234,-0.005113814708343385,-0.0009424777960769379,-0.00937241808320955
104752.3617,0.196133,0.00980665,9.81645665,0.00476474885794452,0.002181661564992912,0.0009250245035569946
104752.3749,0.25497289999999995,-0.00980665,9.81645665,-0.006911503837897545,0.0019024088846738192,-0.0053058009260627615
104752.3879,0.28439285,0.0196133,9.757616749999999,0.005602506898901798,-0.0045029494701453706,0.0023911010752322315
104752.3987,0.16671305,-0.10787314999999999,9.80665,0.003490658503988659,0.0006457718232379018,0.005270894341022875
104752.4087,0.28439285,-0.0784532,9.79684335,-0.0006981317007977319,-0.0046251225177849735,0.0041887902047863905
104752.4207,0.28439285,-0.04903325,9.80665,0.0009948376736367678,-0.007033676885537149,-0.005567600313861911
104752.4309,0.196133,-0.00980665,9.77723005,-6.981317007977319e-05,-0.002617993877991494,-0.005026548245743669
104752.4408,0.2745862,-0.0392266,9.77723005,0.0014311699866353504,0.0066322511575784525,0.002007128639793479
104752.4521,0.22555294999999997,-0.04903325,9.845876599999999,-0.007557275661135447,-0.0013439035240356337,0.00019198621771937625
104752.4621,0.196133,0.04903325,9.845876599999999,-0.004886921905584123,-0.0016755160819145565,0.0003839724354387525
104752.4734,0.28439285,-0.0392266,9.8654899,0.005707226654021458,-0.0033684854563490563,0.001117010721276371
104752.4844,0.25497289999999995,-0.02941995,9.836069949999999,-0.0004886921905584122,-0.0029670597283903604,0.0029321531433504737
104752.4947,0.29419949999999995,-0.06864655,9.81645665,-0.0030543261909900766,0.0045029494701453706,0.0016755160819145565
104752.5042,0.3138128,-0.04903325,9.77723005,-0.003473205211468716,0.0012915436464758037,-0.004276056667386108
104752.5157,0.29419949999999995,-0.04903325,9.81645665,-0.003787364476827695,0.0065275314024587925,0.002007128639793479
104752.5269,0.25497289999999995,-0.0196133,9.826263299999999,-0.004642575810304917,0.005759586531581287,0.00019198621771937625
104752.5377,0.24516625,-0.00980665,9.80665,-0.001954768762233649,-0.005585053606381855,0.01722639971718403
104752.5487,0.26477955,0.0196133,9.836069949999999,0.00301941960595019,0.0003839724354387525,-0.00926769832808989
104752.5591,0.30400615,-0.06864655,9.855683249999998,-0.0035953782591083188,-0.0057246799465414016,0.003525565089028546
104752.5711,0.32361945,-0.0196133,9.7870367,-0.01064650843716541,0.006457718232379019,-0.0024609142453120045
104752.5807,0.2353596,0.00980665,9.7674234,0.006544984694978736,-0.002234021442552742,0.003543018381548489
104752.5914,0.25497289999999995,-0.0588399,9.836069949999999,-0.0045204027626653135,-0.0005235987755982988,0.003665191429188092
104752.6021,0.26477955,-0.04903325,9.81645665,-0.003665191429188092,-0.0006632251157578452,0.002478367537831948
104752.6124,0.25497289999999995,-0.06864655,9.81645665,0.006719517620178169,-0.00012217304763960306,0.01096066770252439
104752.6224,0.3138128,-0.0784532,9.80665,0.0027401669256310974,-0.002007128639793479,-0.0011344640137963143
104752.6337,0.2353596,-0.08825984999999999,9.836069949999999,-0.0020420352248333657,0.004939281783143952,0.00301941960595019
104752.6447,0.26477955,-0.0392266,9.757616749999999,-0.0102799892942466,-0.0014835298641951802,-0.008761552845011534
104752.6555,0.24516625,-0.00980665,9.7674234,0.006283185307179586,-0.002478367537831948,0.006283185307179586
104752.6658,0.29419949999999995,-0.04903325,9.7674234,-0.0005585053606381855,0.0029670597283903604,-0.0047298422729046335
104752.6754,0.36284605,-0.0196133,9.836069949999999,0.003944444109507185,-0.00301941960595019,0.006911503837897545
104752.6855,0.24516625,0.0,9.81645665,0.0008203047484373349,-0.0076445421237351634,0.0014835298641951802
104752.6965,0.24516625,0.0392266,9.7870367,-0.0010821041362364843,0.0019024088846738192,0.006475171524898963
104752.7085,0.34323275000000003,-0.0196133,9.875296549999998,-0.0048345620280242935,-0.0011344640137963143,-0.0008377580409572782
104752.7189,0.3138128,-0.02941995,9.826263299999999,0.0014835298641951802,-0.0040666171571467884,-0.0038222710618675817
104752.7283,0.26477955,-0.0196133,9.826263299999999,0.011205013797803596,-0.003490658503988659,0.0035953782591083188
104752.7383,0.20593965,-0.0196133,9.738003449999999,0.002356194490192345,1.7453292519943296e-05,-0.0014835298641951802
104752.7484,0.24516625,0.0196133,9.80665,-0.005235987755982988,-0.00015707963267948965,-0.0026354471705114374
104752.7586,0.2353596,-0.04903325,9.77723005,-0.0018151424220741027,-0.007155849933176751,-0.0026529004630313807
104752.7685,0.25497289999999995,0.00980665,9.77723005,-0.002234021442552742,-0.005288347633542819,0.0013788101090755204
104752.7782,0.21574629999999997,0.0196133,9.79684335,0.002897246558310587,0.005009094953223725,0.0015184364492350666
104752.7883,0.30400615,-0.0588399,9.79684335,-0.009180431865490174,0.00012217304763960306,-0.008447393579652554
104752.7996,0.26477955,-0.0784532,9.77723005,0.0016231562043547264,0.004433136300065597,0.004276056667386108
104752.8097,0.26477955,-0.0392266,9.81645665,0.01228711793404008,-0.0058468529941810045,0.00476474885794452
104752.8198,0.21574629999999997,-0.0196133,9.845876599999999,0.006318091892219472,0.0004363323129985824,0.0006632251157578452
104752.8309,0.3138128,-0.0196133,9.7870367,0.0016057029118347831,-0.005323254218582705,0.004677482395344803
104752.8417,0.24516625,-0.06864655,9.738003449999999,-0.0028797932657906437,-0.0008377580409572782,0.0057421332390613445
104752.8525,0.25497289999999995,-0.04903325,9.80665,0.005026548245743669,0.0005585053606381855,0.0008552113334772215
104752.8643,0.3138128,-0.0196133,9.80665,-0.0006283185307179586,0.0020943951023931952,0.0059515727493006645
104752.8757,0.26477955,0.0,9.79684335,0.0025830872929516074,-0.004433136300065597,0.0009250245035569946
104752.8850,0.22555294999999997,0.0196133,9.81645665,-0.0030019663134302466,-0.0077492618788548235,0.005270894341022875
104752.8953,0.2745862,-0.0588399,9.7870367,-0.005340707511102648,0.0014660765716752368,-0.003193952531149623
104752.9053,0.26477955,-0.00980665,9.7870367,-0.0019024088846738192,-0.004118977034706617,0.004642575810304917
104752.9156,0.17651969999999997,0.00980665,9.80665,0.008988445647770798,0.001361356816555577,-0.0003316125578789226
104752.9268,0.2745862,-0.0196133,9.81645665,-0.008517206749732328,0.0007853981633974482,-0.0017976891295541594
104752.9368,0.24516625,-0.06864655,9.738003449999999,0.001832595714594046,0.0007155849933176752,-0.00010471975511965978
104752.9478,0.30400615,-0.0196133,9.7674234,-0.001710422666954443,8.726646259971648e-05,-0.0027401669256310974
104752.9586,0.2745862,-0.1176798,9.855683249999998,-0.004345869837465881,0.005689773361501515,-0.0035779249665883754
104752.9740,0.26477955,-0.06864655,9.80665,0.002234021442552742,-0.005550147021341968,-0.0022514747350726853
104752.9847,0.28439285,-0.0588399,9.81645665,0.005777039824101231,-0.0036302848441482054,-0.004468042885105484
104752.9957,0.32361945,-0.0392266,9.836069949999999,-0.0063006385996995295,-0.003682644721708035,-0.0018151424220741027
104753.0062,0.2745862,-0.04903325,9.7281968,0.006614797865058509,0.0020943951023931952,-0.0015707963267948964
104753.0162,0.25497289999999995,-0.0588399,9.757616749999999,-0.0033161255787892262,-0.0051836278784231585,0.0037175513067479217
104753.0263,0.3138128,-0.0,9.8654899,0.011641346110802179,0.00767944870877505,-0.0016929693744344998
104753.0360,0.22555294999999997,-0.0588399,9.757616749999999,-0.0030019663134302466,0.002495820830351891,0.0056374134839416844
104753.0471,0.24516625,-0.02941995,9.757616749999999,0.003839724354387525,0.004380776422505767,-0.006771877497737999
104753.0559,0.29419949999999995,-0.0392266,9.79684335,-0.006754424205218055,0.004485496177625427,-0.006335545184739416
104753.0709,0.26477955,-0.0784532,9.7674234,0.0017976891295541594,-0.003665191429188092,-0.0035081117965086025
104753.0816,0.30400615,-0.0392266,9.7674234,-0.0032114058236695662,0.003892084231947355,0.0023387411976724015
104753.0917,0.26477955,0.0,9.875296549999998,-0.0042935099599060505,-0.0038746309394274117,0.002530727415391778
104753.1016,0.20593965,-0.0392266,9.79684335,-0.0022689280275926286,0.001413716694115407,-0.0011693705988362008
104753.1128,0.24516625,-0.1176798,9.77723005,-0.0038746309394274117,-0.008220500776893291,0.003682644721708035
104753.1237,0.24516625,-0.00980665,9.836069949999999,0.00019198621771937625,0.002478367537831948,-0.004886921905584123
104753.1358,0.29419949999999995,0.00980665,9.80665,-0.005131268000863329,-0.0025132741228718345,0.0029670597283903604
104753.1468,0.2745862,0.00980665,9.7674234,0.006073745796940267,-0.003892084231947355,0.004328416544945937
104753.1553,0.29419949999999995,0.00980665,9.81645665,0.0022165681500327986,-0.0027576202181510408,-0.009459684545809267
104753.1669,0.2353596,-0.0196133,9.826263299999999,-0.0025656340004316645,0.0065100781099388496,-0.0021118483949131386
104753.1773,0.29419949999999995,-0.04903325,9.77723005,-0.0009599310885968813,0.004694935687864747,0.0008552113334772215
104753.1897,0.22555294999999997,-0.0392266,9.747810099999999,-0.005567600313861911,0.0065275314024587925,-0.0020943951023931952
104753.1982,0.24516625,-0.06864655,9.845876599999999,0.006178465552059927,-0.0016580627893946131,0.0024260076602721182
104753.2084,0.28439285,-0.0,9.7085835,0.00019198621771937625,-0.003612831551628262,-0.001308996938995747
104753.2225,0.2745862,-0.0588399,9.738003449999999,-0.001762782544514273,-0.008028514559173916,0.00153588974175501
104753.2323,0.30400615,-0.06864655,9.81645665,0.011082840750163993,-0.004886921905584123,0.008970992355250854
104753.2424,0.26477955,-0.06864655,9.826263299999999,-0.005899212871740834,0.002076941809873252,-0.007120943348136864
104753.2521,0.28439285,0.02941995,9.836069949999999,-0.00013962634015954637,-0.0036302848441482054,0.0030368728984701333
104753.2619,0.2745862,-0.0588399,9.81645665,-0.007504915783575617,0.010105456369047167,-0.003159045946109736
104753.2720,0.26477955,-0.00980665,9.826263299999999,0.0022165681500327986,-0.005218534463463045,0.003996803987067015
104753.2821,0.2745862,0.00980665,9.7870367,-0.00153588974175501,0.0005759586531581288,-0.004258603374866164
104753.2921,0.28439285,-0.06864655,9.79684335,-0.005689773361501515,-0.006894050545377602,0.0013439035240356337
104753.3025,0.22555294999999997,-0.0784532,9.7870367,0.000593411945678072,-0.006318091892219472,0.008866272600131194
104753.3122,0.30400615,0.00980665,9.7674234,-0.004101523742186674,-0.0012042771838760874,0.009616764178488757
104753.3220,0.28439285,-0.0,9.7674234,-0.0007853981633974482,-0.004084070449666731,-0.006283185307179586
104753.3340,0.2353596,-0.00980665,9.79684335,0.006492624817418906,-0.005288347633542819,0.004084070449666731
104753.3437,0.26477955,-0.04903325,9.79684335,0.002129301687433082,0.007243116395776467,-0.009459684545809267
104753.3547,0.21574629999999997,0.00980665,9.8654899,-0.0010821041362364843,0.0026529004630313807,0.0014660765716752368
104753.3654,0.2353596,-0.0784532,9.77723005,-0.0008726646259971648,0.0049741883681838385,-0.006684611035138282
104753.3753,0.22555294999999997,-0.02941995,9.747810099999999,-0.0067369709126981125,-0.003403392041388943,0.0011344640137963143
104753.3853,0.3138128,-0.0392266,9.845876599999999,-0.003525565089028546,0.00476474885794452,0.00466002910282486
104753.3951,0.28439285,0.00980665,9.855683249999998,0.0032812189937493396,0.002286381320112572,0.0032637657012293962
